ExperimentName,Subject,Version,Trial,Condition,Image,Image_dur,Shape,ShapeRate,LikePre.RESP,LikePre.RT,LikePre.RTTime,LikePost.RESP,LikePost.RT,LikePost.RTTime,Procedure,NervousPost.RESP,NervousPost.RT,NervousPost.RTTime,NervousPre.RESP,NervousPre.RT,NervousPre.RTTime
Class_cond_v1_REG_nervous,113,v1,1,,,,CSMinus,image2.bmp,3,7102,23225,,,,PreRating,,,,1,3278,26550
Class_cond_v1_REG_nervous,113,v1,2,,,,CSPlus,image1.bmp,2,2938,29544,,,,PreRating,,,,1,2133,31722
Class_cond_v1_REG_nervous,113,v1,3,CSNoise,image1.bmp,5500,,,,,,,,,CSTrial,,,,,,
Class_cond_v1_REG_nervous,113,v1,4,CSNoise,image1.bmp,8500,,,,,,,,,CSTrial,,,,,,
Class_cond_v1_REG_nervous,113,v1,5,CSPlus,image1.bmp,500,,,,,,,,,CSTrial,,,,,,
Class_cond_v1_REG_nervous,113,v1,6,CSMinus,image2.bmp,1000,,,,,,,,,CSTrial,,,,,,
Class_cond_v1_REG_nervous,113,v1,7,CSMinus,image2.bmp,5000,,,,,,,,,CSTrial,,,,,,
Class_cond_v1_REG_nervous,113,v1,8,CSMinus,image2.bmp,2500,,,,,,,,,CSTrial,,,,,,
Class_cond_v1_REG_nervous,113,v1,9,CSMinus,image2.bmp,5500,,,,,,,,,CSTrial,,,,,,
Class_cond_v1_REG_nervous,113,v1,10,CSMinus,image2.bmp,6000,,,,,,,,,CSTrial,,,,,,
Class_cond_v1_REG_nervous,113,v1,11,CSNoise,image1.bmp,2500,,,,,,,,,CSTrial,,,,,,
Class_cond_v1_REG_nervous,113,v1,12,CSNoise,image1.bmp,10000,,,,,,,,,CSTrial,,,,,,
Class_cond_v1_REG_nervous,113,v1,13,CSNoise,image1.bmp,8000,,,,,,,,,CSTrial,,,,,,
Class_cond_v1_REG_nervous,113,v1,14,CSNoise,image1.bmp,6000,,,,,,,,,CSTrial,,,,,,
Class_cond_v1_REG_nervous,113,v1,15,CSMinus,image2.bmp,6500,,,,,,,,,CSTrial,,,,,,
Class_cond_v1_REG_nervous,113,v1,16,CSPlus,image1.bmp,3000,,,,,,,,,CSTrial,,,,,,
Class_cond_v1_REG_nervous,113,v1,17,CSMinus,image2.bmp,8500,,,,,,,,,CSTrial,,,,,,
Class_cond_v1_REG_nervous,113,v1,18,CSMinus,image2.bmp,1000,,,,,,,,,CSTrial,,,,,,
Class_cond_v1_REG_nervous,113,v1,19,,,,CSMinus,image2.bmp,,,,3,5346,310489,PreRating1,1,1893,312420,,,
Class_cond_v1_REG_nervous,113,v1,20,,,,CSPlus,image1.bmp,,,,2,2487,314963,PreRating1,1,1698,316708,,,
Class_cond_v1_REG_nervous,125,v1,1,,,,CSPlus,image1.bmp,5,3964,23214,,,,PreRating,,,,1,3373,26623
Class_cond_v1_REG_nervous,125,v1,2,,,,CSMinus,image2.bmp,5,3368,30051,,,,PreRating,,,,1,3296,33396
Class_cond_v1_REG_nervous,125,v1,3,CSNoise,image1.bmp,5500,,,,,,,,,CSTrial,,,,,,
Class_cond_v1_REG_nervous,125,v1,4,CSNoise,image1.bmp,8500,,,,,,,,,CSTrial,,,,,,
Class_cond_v1_REG_nervous,125,v1,5,CSPlus,image1.bmp,500,,,,,,,,,CSTrial,,,,,,
Class_cond_v1_REG_nervous,125,v1,6,CSMinus,image2.bmp,1000,,,,,,,,,CSTrial,,,,,,
Class_cond_v1_REG_nervous,125,v1,7,CSMinus,image2.bmp,5000,,,,,,,,,CSTrial,,,,,,
Class_cond_v1_REG_nervous,125,v1,8,CSMinus,image2.bmp,2500,,,,,,,,,CSTrial,,,,,,
Class_cond_v1_REG_nervous,125,v1,9,CSMinus,image2.bmp,5500,,,,,,,,,CSTrial,,,,,,
Class_cond_v1_REG_nervous,125,v1,10,CSMinus,image2.bmp,6000,,,,,,,,,CSTrial,,,,,,
Class_cond_v1_REG_nervous,125,v1,11,CSNoise,image1.bmp,2500,,,,,,,,,CSTrial,,,,,,
Class_cond_v1_REG_nervous,125,v1,12,CSNoise,image1.bmp,10000,,,,,,,,,CSTrial,,,,,,
Class_cond_v1_REG_nervous,125,v1,13,CSNoise,image1.bmp,8000,,,,,,,,,CSTrial,,,,,,
Class_cond_v1_REG_nervous,125,v1,14,CSNoise,image1.bmp,6000,,,,,,,,,CSTrial,,,,,,
Class_cond_v1_REG_nervous,125,v1,15,CSMinus,image2.bmp,6500,,,,,,,,,CSTrial,,,,,,
Class_cond_v1_REG_nervous,125,v1,16,CSPlus,image1.bmp,3000,,,,,,,,,CSTrial,,,,,,
Class_cond_v1_REG_nervous,125,v1,17,CSMinus,image2.bmp,8500,,,,,,,,,CSTrial,,,,,,
Class_cond_v1_REG_nervous,125,v1,18,CSMinus,image2.bmp,1000,,,,,,,,,CSTrial,,,,,,
Class_cond_v1_REG_nervous,125,v1,19,,,,CSMinus,image2.bmp,,,,3,5384,321769,PreRating1,1,4743,326562,,,
Class_cond_v1_REG_nervous,125,v1,20,,,,CSPlus,image1.bmp,,,,5,2497,329115,PreRating1,1,3092,332243,,,
Class_cond_v1_REG_nervous,161,v1,1,,,,CSMinus,image2.bmp,5,6224,27559,,,,PreRating,,,,1,5130,32731
Class_cond_v1_REG_nervous,161,v1,2,,,,CSPlus,image1.bmp,5,4131,36932,,,,PreRating,,,,1,3835,40819
Class_cond_v1_REG_nervous,161,v1,3,CSNoise,image1.bmp,5500,,,,,,,,,CSTrial,,,,,,
Class_cond_v1_REG_nervous,161,v1,4,CSNoise,image1.bmp,8500,,,,,,,,,CSTrial,,,,,,
Class_cond_v1_REG_nervous,161,v1,5,CSPlus,image1.bmp,500,,,,,,,,,CSTrial,,,,,,
Class_cond_v1_REG_nervous,161,v1,6,CSMinus,image2.bmp,1000,,,,,,,,,CSTrial,,,,,,
Class_cond_v1_REG_nervous,161,v1,7,CSMinus,image2.bmp,5000,,,,,,,,,CSTrial,,,,,,
Class_cond_v1_REG_nervous,161,v1,8,CSMinus,image2.bmp,2500,,,,,,,,,CSTrial,,,,,,
Class_cond_v1_REG_nervous,161,v1,9,CSMinus,image2.bmp,5500,,,,,,,,,CSTrial,,,,,,
Class_cond_v1_REG_nervous,161,v1,10,CSMinus,image2.bmp,6000,,,,,,,,,CSTrial,,,,,,
Class_cond_v1_REG_nervous,161,v1,11,CSNoise,image1.bmp,2500,,,,,,,,,CSTrial,,,,,,
Class_cond_v1_REG_nervous,161,v1,12,CSNoise,image1.bmp,10000,,,,,,,,,CSTrial,,,,,,
Class_cond_v1_REG_nervous,161,v1,13,CSNoise,image1.bmp,8000,,,,,,,,,CSTrial,,,,,,
Class_cond_v1_REG_nervous,161,v1,14,CSNoise,image1.bmp,6000,,,,,,,,,CSTrial,,,,,,
Class_cond_v1_REG_nervous,161,v1,15,CSMinus,image2.bmp,6500,,,,,,,,,CSTrial,,,,,,
Class_cond_v1_REG_nervous,161,v1,16,CSPlus,image1.bmp,3000,,,,,,,,,CSTrial,,,,,,
Class_cond_v1_REG_nervous,161,v1,17,CSMinus,image2.bmp,8500,,,,,,,,,CSTrial,,,,,,
Class_cond_v1_REG_nervous,161,v1,18,CSMinus,image2.bmp,1000,,,,,,,,,CSTrial,,,,,,
Class_cond_v1_REG_nervous,161,v1,19,,,,CSPlus,image1.bmp,,,,5,2286,357752,PreRating1,5,2708,360507,,,
Class_cond_v1_REG_nervous,161,v1,20,,,,CSMinus,image2.bmp,,,,1,2971,363537,PreRating1,1,11881,375463,,,
Class_cond_v1_REG_nervous,185,v1,1,,,,CSMinus,image2.bmp,5,9981,21052,,,,PreRating,,,,2,6558,27662
Class_cond_v1_REG_nervous,185,v1,2,,,,CSPlus,image1.bmp,2,2452,30172,,,,PreRating,,,,3,7208,37428
Class_cond_v1_REG_nervous,185,v1,3,CSNoise,image1.bmp,5500,,,,,,,,,CSTrial,,,,,,
Class_cond_v1_REG_nervous,185,v1,4,CSNoise,image1.bmp,8500,,,,,,,,,CSTrial,,,,,,
Class_cond_v1_REG_nervous,185,v1,5,CSPlus,image1.bmp,500,,,,,,,,,CSTrial,,,,,,
Class_cond_v1_REG_nervous,185,v1,6,CSMinus,image2.bmp,1000,,,,,,,,,CSTrial,,,,,,
Class_cond_v1_REG_nervous,185,v1,7,CSMinus,image2.bmp,5000,,,,,,,,,CSTrial,,,,,,
Class_cond_v1_REG_nervous,185,v1,8,CSMinus,image2.bmp,2500,,,,,,,,,CSTrial,,,,,,
Class_cond_v1_REG_nervous,185,v1,9,CSMinus,image2.bmp,5500,,,,,,,,,CSTrial,,,,,,
Class_cond_v1_REG_nervous,185,v1,10,CSMinus,image2.bmp,6000,,,,,,,,,CSTrial,,,,,,
Class_cond_v1_REG_nervous,185,v1,11,CSNoise,image1.bmp,2500,,,,,,,,,CSTrial,,,,,,
Class_cond_v1_REG_nervous,185,v1,12,CSNoise,image1.bmp,10000,,,,,,,,,CSTrial,,,,,,
Class_cond_v1_REG_nervous,185,v1,13,CSNoise,image1.bmp,8000,,,,,,,,,CSTrial,,,,,,
Class_cond_v1_REG_nervous,185,v1,14,CSNoise,image1.bmp,6000,,,,,,,,,CSTrial,,,,,,
Class_cond_v1_REG_nervous,185,v1,15,CSMinus,image2.bmp,6500,,,,,,,,,CSTrial,,,,,,
Class_cond_v1_REG_nervous,185,v1,16,CSPlus,image1.bmp,3000,,,,,,,,,CSTrial,,,,,,
Class_cond_v1_REG_nervous,185,v1,17,CSMinus,image2.bmp,8500,,,,,,,,,CSTrial,,,,,,
Class_cond_v1_REG_nervous,185,v1,18,CSMinus,image2.bmp,1000,,,,,,,,,CSTrial,,,,,,
Class_cond_v1_REG_nervous,185,v1,19,,,,CSPlus,image1.bmp,,,,5,7724,341763,PreRating1,2,4268,346074,,,
Class_cond_v1_REG_nervous,185,v1,20,,,,CSMinus,image2.bmp,,,,5,4832,350954,PreRating1,1,5549,356554,,,
Class_cond_v1_REG_nervous,200,v1,1,,,,CSPlus,image1.bmp,3,4908,22374,,,,PreRating,,,,3,3327,25743
Class_cond_v1_REG_nervous,200,v1,2,,,,CSMinus,image2.bmp,4,2538,28354,,,,PreRating,,,,2,2604,31003
Class_cond_v1_REG_nervous,200,v1,3,CSNoise,image1.bmp,5500,,,,,,,,,CSTrial,,,,,,
Class_cond_v1_REG_nervous,200,v1,4,CSNoise,image1.bmp,8500,,,,,,,,,CSTrial,,,,,,
Class_cond_v1_REG_nervous,200,v1,5,CSPlus,image1.bmp,500,,,,,,,,,CSTrial,,,,,,
Class_cond_v1_REG_nervous,200,v1,6,CSMinus,image2.bmp,1000,,,,,,,,,CSTrial,,,,,,
Class_cond_v1_REG_nervous,200,v1,7,CSMinus,image2.bmp,5000,,,,,,,,,CSTrial,,,,,,
Class_cond_v1_REG_nervous,200,v1,8,CSMinus,image2.bmp,2500,,,,,,,,,CSTrial,,,,,,
Class_cond_v1_REG_nervous,200,v1,9,CSMinus,image2.bmp,5500,,,,,,,,,CSTrial,,,,,,
Class_cond_v1_REG_nervous,200,v1,10,CSMinus,image2.bmp,6000,,,,,,,,,CSTrial,,,,,,
Class_cond_v1_REG_nervous,200,v1,11,CSNoise,image1.bmp,2500,,,,,,,,,CSTrial,,,,,,
Class_cond_v1_REG_nervous,200,v1,12,CSNoise,image1.bmp,10000,,,,,,,,,CSTrial,,,,,,
Class_cond_v1_REG_nervous,200,v1,13,CSNoise,image1.bmp,8000,,,,,,,,,CSTrial,,,,,,
Class_cond_v1_REG_nervous,200,v1,14,CSNoise,image1.bmp,6000,,,,,,,,,CSTrial,,,,,,
Class_cond_v1_REG_nervous,200,v1,15,CSMinus,image2.bmp,6500,,,,,,,,,CSTrial,,,,,,
Class_cond_v1_REG_nervous,200,v1,16,CSPlus,image1.bmp,3000,,,,,,,,,CSTrial,,,,,,
Class_cond_v1_REG_nervous,200,v1,17,CSMinus,image2.bmp,8500,,,,,,,,,CSTrial,,,,,,
Class_cond_v1_REG_nervous,200,v1,18,CSMinus,image2.bmp,1000,,,,,,,,,CSTrial,,,,,,
Class_cond_v1_REG_nervous,200,v1,19,,,,CSMinus,image2.bmp,,,,4,2319,383086,PreRating1,2,2917,386051,,,
Class_cond_v1_REG_nervous,200,v1,20,,,,CSPlus,image1.bmp,,,,4,2722,388822,PreRating1,4,1581,390448,,,
Class_cond_v1_REG_nervous,209,v1,1,,,,CSPlus,image1.bmp,3,15870,55171,,,,PreRating,,,,2,13213,68430
Class_cond_v1_REG_nervous,209,v1,2,,,,CSMinus,image2.bmp,5,3853,72353,,,,PreRating,,,,1,4530,76930
Class_cond_v1_REG_nervous,209,v1,3,CSNoise,image1.bmp,5500,,,,,,,,,CSTrial,,,,,,
Class_cond_v1_REG_nervous,209,v1,4,CSNoise,image1.bmp,8500,,,,,,,,,CSTrial,,,,,,
Class_cond_v1_REG_nervous,209,v1,5,CSPlus,image1.bmp,500,,,,,,,,,CSTrial,,,,,,
Class_cond_v1_REG_nervous,209,v1,6,CSMinus,image2.bmp,1000,,,,,,,,,CSTrial,,,,,,
Class_cond_v1_REG_nervous,209,v1,7,CSMinus,image2.bmp,5000,,,,,,,,,CSTrial,,,,,,
Class_cond_v1_REG_nervous,209,v1,8,CSMinus,image2.bmp,2500,,,,,,,,,CSTrial,,,,,,
Class_cond_v1_REG_nervous,209,v1,9,CSMinus,image2.bmp,5500,,,,,,,,,CSTrial,,,,,,
Class_cond_v1_REG_nervous,209,v1,10,CSMinus,image2.bmp,6000,,,,,,,,,CSTrial,,,,,,
Class_cond_v1_REG_nervous,209,v1,11,CSNoise,image1.bmp,2500,,,,,,,,,CSTrial,,,,,,
Class_cond_v1_REG_nervous,209,v1,12,CSNoise,image1.bmp,10000,,,,,,,,,CSTrial,,,,,,
Class_cond_v1_REG_nervous,209,v1,13,CSNoise,image1.bmp,8000,,,,,,,,,CSTrial,,,,,,
Class_cond_v1_REG_nervous,209,v1,14,CSNoise,image1.bmp,6000,,,,,,,,,CSTrial,,,,,,
Class_cond_v1_REG_nervous,209,v1,15,CSMinus,image2.bmp,6500,,,,,,,,,CSTrial,,,,,,
Class_cond_v1_REG_nervous,209,v1,16,CSPlus,image1.bmp,3000,,,,,,,,,CSTrial,,,,,,
Class_cond_v1_REG_nervous,209,v1,17,CSMinus,image2.bmp,8500,,,,,,,,,CSTrial,,,,,,
Class_cond_v1_REG_nervous,209,v1,18,CSMinus,image2.bmp,1000,,,,,,,,,CSTrial,,,,,,
Class_cond_v1_REG_nervous,209,v1,19,,,,CSMinus,image2.bmp,,,,5,12694,365081,PreRating1,1,4360,369480,,,
Class_cond_v1_REG_nervous,209,v1,20,,,,CSPlus,image1.bmp,,,,2,4433,373970,PreRating1,3,6400,380420,,,
Class_cond_v1_REG_nervous,212,v1,1,,,,CSMinus,image2.bmp,5,3835,33817,,,,PreRating,,,,1,3900,37765
Class_cond_v1_REG_nervous,212,v1,2,,,,CSPlus,image1.bmp,5,3177,41025,,,,PreRating,,,,1,3098,44162
Class_cond_v1_REG_nervous,212,v1,3,CSNoise,image1.bmp,5500,,,,,,,,,CSTrial,,,,,,
Class_cond_v1_REG_nervous,212,v1,4,CSNoise,image1.bmp,8500,,,,,,,,,CSTrial,,,,,,
Class_cond_v1_REG_nervous,212,v1,5,CSPlus,image1.bmp,500,,,,,,,,,CSTrial,,,,,,
Class_cond_v1_REG_nervous,212,v1,6,CSMinus,image2.bmp,1000,,,,,,,,,CSTrial,,,,,,
Class_cond_v1_REG_nervous,212,v1,7,CSMinus,image2.bmp,5000,,,,,,,,,CSTrial,,,,,,
Class_cond_v1_REG_nervous,212,v1,8,CSMinus,image2.bmp,2500,,,,,,,,,CSTrial,,,,,,
Class_cond_v1_REG_nervous,212,v1,9,CSMinus,image2.bmp,5500,,,,,,,,,CSTrial,,,,,,
Class_cond_v1_REG_nervous,212,v1,10,CSMinus,image2.bmp,6000,,,,,,,,,CSTrial,,,,,,
Class_cond_v1_REG_nervous,212,v1,11,CSNoise,image1.bmp,2500,,,,,,,,,CSTrial,,,,,,
Class_cond_v1_REG_nervous,212,v1,12,CSNoise,image1.bmp,10000,,,,,,,,,CSTrial,,,,,,
Class_cond_v1_REG_nervous,212,v1,13,CSNoise,image1.bmp,8000,,,,,,,,,CSTrial,,,,,,
Class_cond_v1_REG_nervous,212,v1,14,CSNoise,image1.bmp,6000,,,,,,,,,CSTrial,,,,,,
Class_cond_v1_REG_nervous,212,v1,15,CSMinus,image2.bmp,6500,,,,,,,,,CSTrial,,,,,,
Class_cond_v1_REG_nervous,212,v1,16,CSPlus,image1.bmp,3000,,,,,,,,,CSTrial,,,,,,
Class_cond_v1_REG_nervous,212,v1,17,CSMinus,image2.bmp,8500,,,,,,,,,CSTrial,,,,,,
Class_cond_v1_REG_nervous,212,v1,18,CSMinus,image2.bmp,1000,,,,,,,,,CSTrial,,,,,,
Class_cond_v1_REG_nervous,212,v1,19,,,,CSPlus,image1.bmp,,,,3,5438,322338,PreRating1,3,4398,326781,,,
Class_cond_v1_REG_nervous,212,v1,20,,,,CSMinus,image2.bmp,,,,5,2191,329024,PreRating1,1,3297,332363,,,
Class_cond_v1_REG_nervous,221,v1,1,,,,CSMinus,image2.bmp,5,7251,46122,,,,PreRating,,,,3,6523,52694
Class_cond_v1_REG_nervous,221,v1,2,,,,CSPlus,image1.bmp,4,5092,57846,,,,PreRating,,,,2,2658,60545
Class_cond_v1_REG_nervous,221,v1,3,CSNoise,image1.bmp,5500,,,,,,,,,CSTrial,,,,,,
Class_cond_v1_REG_nervous,221,v1,4,CSNoise,image1.bmp,8500,,,,,,,,,CSTrial,,,,,,
Class_cond_v1_REG_nervous,221,v1,5,CSPlus,image1.bmp,500,,,,,,,,,CSTrial,,,,,,
Class_cond_v1_REG_nervous,221,v1,6,CSMinus,image2.bmp,1000,,,,,,,,,CSTrial,,,,,,
Class_cond_v1_REG_nervous,221,v1,7,CSMinus,image2.bmp,5000,,,,,,,,,CSTrial,,,,,,
Class_cond_v1_REG_nervous,221,v1,8,CSMinus,image2.bmp,2500,,,,,,,,,CSTrial,,,,,,
Class_cond_v1_REG_nervous,221,v1,9,CSMinus,image2.bmp,5500,,,,,,,,,CSTrial,,,,,,
Class_cond_v1_REG_nervous,221,v1,10,CSMinus,image2.bmp,6000,,,,,,,,,CSTrial,,,,,,
Class_cond_v1_REG_nervous,221,v1,11,CSNoise,image1.bmp,2500,,,,,,,,,CSTrial,,,,,,
Class_cond_v1_REG_nervous,221,v1,12,CSNoise,image1.bmp,10000,,,,,,,,,CSTrial,,,,,,
Class_cond_v1_REG_nervous,221,v1,13,CSNoise,image1.bmp,8000,,,,,,,,,CSTrial,,,,,,
Class_cond_v1_REG_nervous,221,v1,14,CSNoise,image1.bmp,6000,,,,,,,,,CSTrial,,,,,,
Class_cond_v1_REG_nervous,221,v1,15,CSMinus,image2.bmp,6500,,,,,,,,,CSTrial,,,,,,
Class_cond_v1_REG_nervous,221,v1,16,CSPlus,image1.bmp,3000,,,,,,,,,CSTrial,,,,,,
Class_cond_v1_REG_nervous,221,v1,17,CSMinus,image2.bmp,8500,,,,,,,,,CSTrial,,,,,,
Class_cond_v1_REG_nervous,221,v1,18,CSMinus,image2.bmp,1000,,,,,,,,,CSTrial,,,,,,
Class_cond_v1_REG_nervous,221,v1,19,,,,CSPlus,image1.bmp,,,,3,5707,346264,PreRating1,3,3171,349478,,,
Class_cond_v1_REG_nervous,221,v1,20,,,,CSMinus,image2.bmp,,,,4,2750,352290,PreRating1,1,2956,355296,,,
Class_cond_v1_REG_nervous,227,v1,1,,,,CSPlus,image1.bmp,5,3480,18383,,,,PreRating,,,,1,2978,21397
Class_cond_v1_REG_nervous,227,v1,2,,,,CSMinus,image2.bmp,5,1645,23097,,,,PreRating,,,,1,1466,24601
Class_cond_v1_REG_nervous,227,v1,3,CSNoise,image1.bmp,5500,,,,,,,,,CSTrial,,,,,,
Class_cond_v1_REG_nervous,227,v1,4,CSNoise,image1.bmp,8500,,,,,,,,,CSTrial,,,,,,
Class_cond_v1_REG_nervous,227,v1,5,CSPlus,image1.bmp,500,,,,,,,,,CSTrial,,,,,,
Class_cond_v1_REG_nervous,227,v1,6,CSMinus,image2.bmp,1000,,,,,,,,,CSTrial,,,,,,
Class_cond_v1_REG_nervous,227,v1,7,CSMinus,image2.bmp,5000,,,,,,,,,CSTrial,,,,,,
Class_cond_v1_REG_nervous,227,v1,8,CSMinus,image2.bmp,2500,,,,,,,,,CSTrial,,,,,,
Class_cond_v1_REG_nervous,227,v1,9,CSMinus,image2.bmp,5500,,,,,,,,,CSTrial,,,,,,
Class_cond_v1_REG_nervous,227,v1,10,CSMinus,image2.bmp,6000,,,,,,,,,CSTrial,,,,,,
Class_cond_v1_REG_nervous,227,v1,11,CSNoise,image1.bmp,2500,,,,,,,,,CSTrial,,,,,,
Class_cond_v1_REG_nervous,227,v1,12,CSNoise,image1.bmp,10000,,,,,,,,,CSTrial,,,,,,
Class_cond_v1_REG_nervous,227,v1,13,CSNoise,image1.bmp,8000,,,,,,,,,CSTrial,,,,,,
Class_cond_v1_REG_nervous,227,v1,14,CSNoise,image1.bmp,6000,,,,,,,,,CSTrial,,,,,,
Class_cond_v1_REG_nervous,227,v1,15,CSMinus,image2.bmp,6500,,,,,,,,,CSTrial,,,,,,
Class_cond_v1_REG_nervous,227,v1,16,CSPlus,image1.bmp,3000,,,,,,,,,CSTrial,,,,,,
Class_cond_v1_REG_nervous,227,v1,17,CSMinus,image2.bmp,8500,,,,,,,,,CSTrial,,,,,,
Class_cond_v1_REG_nervous,227,v1,18,CSMinus,image2.bmp,1000,,,,,,,,,CSTrial,,,,,,
Class_cond_v1_REG_nervous,227,v1,19,,,,CSPlus,image1.bmp,,,,4,3937,304726,PreRating1,3,1477,306249,,,
Class_cond_v1_REG_nervous,227,v1,20,,,,CSMinus,image2.bmp,,,,5,2461,308766,PreRating1,1,2264,311069,,,
Class_cond_v1_REG_nervous,261,v1,1,,,,CSMinus,image2.bmp,2,6,14410,,,,PreRating,,,,1,7794,22248
Class_cond_v1_REG_nervous,261,v1,2,,,,CSPlus,image1.bmp,1,4120,26440,,,,PreRating,,,,2,2556,29042
Class_cond_v1_REG_nervous,261,v1,3,CSNoise,image1.bmp,5500,,,,,,,,,CSTrial,,,,,,
Class_cond_v1_REG_nervous,261,v1,4,CSNoise,image1.bmp,8500,,,,,,,,,CSTrial,,,,,,
Class_cond_v1_REG_nervous,261,v1,5,CSPlus,image1.bmp,500,,,,,,,,,CSTrial,,,,,,
Class_cond_v1_REG_nervous,261,v1,6,CSMinus,image2.bmp,1000,,,,,,,,,CSTrial,,,,,,
Class_cond_v1_REG_nervous,261,v1,7,CSMinus,image2.bmp,5000,,,,,,,,,CSTrial,,,,,,
Class_cond_v1_REG_nervous,261,v1,8,CSMinus,image2.bmp,2500,,,,,,,,,CSTrial,,,,,,
Class_cond_v1_REG_nervous,261,v1,9,CSMinus,image2.bmp,5500,,,,,,,,,CSTrial,,,,,,
Class_cond_v1_REG_nervous,261,v1,10,CSMinus,image2.bmp,6000,,,,,,,,,CSTrial,,,,,,
Class_cond_v1_REG_nervous,261,v1,11,CSNoise,image1.bmp,2500,,,,,,,,,CSTrial,,,,,,
Class_cond_v1_REG_nervous,261,v1,12,CSNoise,image1.bmp,10000,,,,,,,,,CSTrial,,,,,,
Class_cond_v1_REG_nervous,261,v1,13,CSNoise,image1.bmp,8000,,,,,,,,,CSTrial,,,,,,
Class_cond_v1_REG_nervous,261,v1,14,CSNoise,image1.bmp,6000,,,,,,,,,CSTrial,,,,,,
Class_cond_v1_REG_nervous,261,v1,15,CSMinus,image2.bmp,6500,,,,,,,,,CSTrial,,,,,,
Class_cond_v1_REG_nervous,261,v1,16,CSPlus,image1.bmp,3000,,,,,,,,,CSTrial,,,,,,
Class_cond_v1_REG_nervous,261,v1,17,CSMinus,image2.bmp,8500,,,,,,,,,CSTrial,,,,,,
Class_cond_v1_REG_nervous,261,v1,18,CSMinus,image2.bmp,1000,,,,,,,,,CSTrial,,,,,,
Class_cond_v1_REG_nervous,261,v1,19,,,,CSMinus,image2.bmp,,,,5,7081,335985,PreRating1,1,3120,339157,,,
Class_cond_v1_REG_nervous,261,v1,20,,,,CSPlus,image1.bmp,,,,5,2558,341761,PreRating1,2,3458,345261,,,
Class_cond_v1_REG_nervous,275,v1,1,,,,CSPlus,image1.bmp,5,154,12669,,,,PreRating,,,,2,32237,44952
Class_cond_v1_REG_nervous,275,v1,2,,,,CSMinus,image2.bmp,5,5979,51009,,,,PreRating,,,,5,168,51215
Class_cond_v1_REG_nervous,275,v1,3,CSNoise,image1.bmp,5500,,,,,,,,,CSTrial,,,,,,
Class_cond_v1_REG_nervous,275,v1,4,CSNoise,image1.bmp,8500,,,,,,,,,CSTrial,,,,,,
Class_cond_v1_REG_nervous,275,v1,5,CSPlus,image1.bmp,500,,,,,,,,,CSTrial,,,,,,
Class_cond_v1_REG_nervous,275,v1,6,CSMinus,image2.bmp,1000,,,,,,,,,CSTrial,,,,,,
Class_cond_v1_REG_nervous,275,v1,7,CSMinus,image2.bmp,5000,,,,,,,,,CSTrial,,,,,,
Class_cond_v1_REG_nervous,275,v1,8,CSMinus,image2.bmp,2500,,,,,,,,,CSTrial,,,,,,
Class_cond_v1_REG_nervous,275,v1,9,CSMinus,image2.bmp,5500,,,,,,,,,CSTrial,,,,,,
Class_cond_v1_REG_nervous,275,v1,10,CSMinus,image2.bmp,6000,,,,,,,,,CSTrial,,,,,,
Class_cond_v1_REG_nervous,275,v1,11,CSNoise,image1.bmp,2500,,,,,,,,,CSTrial,,,,,,
Class_cond_v1_REG_nervous,275,v1,12,CSNoise,image1.bmp,10000,,,,,,,,,CSTrial,,,,,,
Class_cond_v1_REG_nervous,275,v1,13,CSNoise,image1.bmp,8000,,,,,,,,,CSTrial,,,,,,
Class_cond_v1_REG_nervous,275,v1,14,CSNoise,image1.bmp,6000,,,,,,,,,CSTrial,,,,,,
Class_cond_v1_REG_nervous,275,v1,15,CSMinus,image2.bmp,6500,,,,,,,,,CSTrial,,,,,,
Class_cond_v1_REG_nervous,275,v1,16,CSPlus,image1.bmp,3000,,,,,,,,,CSTrial,,,,,,
Class_cond_v1_REG_nervous,275,v1,17,CSMinus,image2.bmp,8500,,,,,,,,,CSTrial,,,,,,
Class_cond_v1_REG_nervous,275,v1,18,CSMinus,image2.bmp,1000,,,,,,,,,CSTrial,,,,,,
Class_cond_v1_REG_nervous,275,v1,19,,,,CSPlus,image1.bmp,,,,2,1971,476730,PreRating1,2,1248,478023,,,
Class_cond_v1_REG_nervous,275,v1,20,,,,CSMinus,image2.bmp,,,,4,3296,481371,PreRating1,2,2400,483808,,,
Class_cond_v1_REG_nervous,283,v1,1,,,,CSMinus,image2.bmp,5,2155,7482,,,,PreRating,,,,1,2369,9879
Class_cond_v1_REG_nervous,283,v1,2,,,,CSPlus,image1.bmp,4,4219,14179,,,,PreRating,,,,1,4236,18463
Class_cond_v1_REG_nervous,283,v1,3,CSNoise,image1.bmp,5500,,,,,,,,,CSTrial,,,,,,
Class_cond_v1_REG_nervous,283,v1,4,CSNoise,image1.bmp,8500,,,,,,,,,CSTrial,,,,,,
Class_cond_v1_REG_nervous,283,v1,5,CSPlus,image1.bmp,500,,,,,,,,,CSTrial,,,,,,
Class_cond_v1_REG_nervous,283,v1,6,CSMinus,image2.bmp,1000,,,,,,,,,CSTrial,,,,,,
Class_cond_v1_REG_nervous,283,v1,7,CSMinus,image2.bmp,5000,,,,,,,,,CSTrial,,,,,,
Class_cond_v1_REG_nervous,283,v1,8,CSMinus,image2.bmp,2500,,,,,,,,,CSTrial,,,,,,
Class_cond_v1_REG_nervous,283,v1,9,CSMinus,image2.bmp,5500,,,,,,,,,CSTrial,,,,,,
Class_cond_v1_REG_nervous,283,v1,10,CSMinus,image2.bmp,6000,,,,,,,,,CSTrial,,,,,,
Class_cond_v1_REG_nervous,283,v1,11,CSNoise,image1.bmp,2500,,,,,,,,,CSTrial,,,,,,
Class_cond_v1_REG_nervous,283,v1,12,CSNoise,image1.bmp,10000,,,,,,,,,CSTrial,,,,,,
Class_cond_v1_REG_nervous,283,v1,13,CSNoise,image1.bmp,8000,,,,,,,,,CSTrial,,,,,,
Class_cond_v1_REG_nervous,283,v1,14,CSNoise,image1.bmp,6000,,,,,,,,,CSTrial,,,,,,
Class_cond_v1_REG_nervous,283,v1,15,CSMinus,image2.bmp,6500,,,,,,,,,CSTrial,,,,,,
Class_cond_v1_REG_nervous,283,v1,16,CSPlus,image1.bmp,3000,,,,,,,,,CSTrial,,,,,,
Class_cond_v1_REG_nervous,283,v1,17,CSMinus,image2.bmp,8500,,,,,,,,,CSTrial,,,,,,
Class_cond_v1_REG_nervous,283,v1,18,CSMinus,image2.bmp,1000,,,,,,,,,CSTrial,,,,,,
Class_cond_v1_REG_nervous,283,v1,19,,,,CSMinus,image2.bmp,,,,5,4423,300518,PreRating1,1,1646,302207,,,
Class_cond_v1_REG_nervous,283,v1,20,,,,CSPlus,image1.bmp,,,,4,1453,303714,PreRating1,1,1296,305057,,,
Class_cond_v1_REG_nervous,289,v1,1,,,,CSPlus,image1.bmp,3,4053,13496,,,,PreRating,,,,3,4050,17593
Class_cond_v1_REG_nervous,289,v1,2,,,,CSMinus,image2.bmp,4,2275,19935,,,,PreRating,,,,2,5940,25916
Class_cond_v1_REG_nervous,289,v1,3,CSNoise,image1.bmp,5500,,,,,,,,,CSTrial,,,,,,
Class_cond_v1_REG_nervous,289,v1,4,CSNoise,image1.bmp,8500,,,,,,,,,CSTrial,,,,,,
Class_cond_v1_REG_nervous,289,v1,5,CSPlus,image1.bmp,500,,,,,,,,,CSTrial,,,,,,
Class_cond_v1_REG_nervous,289,v1,6,CSMinus,image2.bmp,1000,,,,,,,,,CSTrial,,,,,,
Class_cond_v1_REG_nervous,289,v1,7,CSMinus,image2.bmp,5000,,,,,,,,,CSTrial,,,,,,
Class_cond_v1_REG_nervous,289,v1,8,CSMinus,image2.bmp,2500,,,,,,,,,CSTrial,,,,,,
Class_cond_v1_REG_nervous,289,v1,9,CSMinus,image2.bmp,5500,,,,,,,,,CSTrial,,,,,,
Class_cond_v1_REG_nervous,289,v1,10,CSMinus,image2.bmp,6000,,,,,,,,,CSTrial,,,,,,
Class_cond_v1_REG_nervous,289,v1,11,CSNoise,image1.bmp,2500,,,,,,,,,CSTrial,,,,,,
Class_cond_v1_REG_nervous,289,v1,12,CSNoise,image1.bmp,10000,,,,,,,,,CSTrial,,,,,,
Class_cond_v1_REG_nervous,289,v1,13,CSNoise,image1.bmp,8000,,,,,,,,,CSTrial,,,,,,
Class_cond_v1_REG_nervous,289,v1,14,CSNoise,image1.bmp,6000,,,,,,,,,CSTrial,,,,,,
Class_cond_v1_REG_nervous,289,v1,15,CSMinus,image2.bmp,6500,,,,,,,,,CSTrial,,,,,,
Class_cond_v1_REG_nervous,289,v1,16,CSPlus,image1.bmp,3000,,,,,,,,,CSTrial,,,,,,
Class_cond_v1_REG_nervous,289,v1,17,CSMinus,image2.bmp,8500,,,,,,,,,CSTrial,,,,,,
Class_cond_v1_REG_nervous,289,v1,18,CSMinus,image2.bmp,1000,,,,,,,,,CSTrial,,,,,,
Class_cond_v1_REG_nervous,289,v1,19,,,,CSPlus,image1.bmp,,,,3,4692,335334,PreRating1,2,4007,339382,,,
Class_cond_v1_REG_nervous,289,v1,20,,,,CSMinus,image2.bmp,,,,5,1569,341011,PreRating1,1,6054,347112,,,
Class_cond_v1_REG_nervous,302,v1,1,,,,CSMinus,image2.bmp,5,10133,371421,,,,PreRating,,,,2,4966,376437
Class_cond_v1_REG_nervous,302,v1,2,,,,CSPlus,image1.bmp,4,3278,379765,,,,PreRating,,,,1,2761,382565
Class_cond_v1_REG_nervous,302,v1,3,CSNoise,image1.bmp,5500,,,,,,,,,CSTrial,,,,,,
Class_cond_v1_REG_nervous,302,v1,4,CSNoise,image1.bmp,8500,,,,,,,,,CSTrial,,,,,,
Class_cond_v1_REG_nervous,302,v1,5,CSPlus,image1.bmp,500,,,,,,,,,CSTrial,,,,,,
Class_cond_v1_REG_nervous,302,v1,6,CSMinus,image2.bmp,1000,,,,,,,,,CSTrial,,,,,,
Class_cond_v1_REG_nervous,302,v1,7,CSMinus,image2.bmp,5000,,,,,,,,,CSTrial,,,,,,
Class_cond_v1_REG_nervous,302,v1,8,CSMinus,image2.bmp,2500,,,,,,,,,CSTrial,,,,,,
Class_cond_v1_REG_nervous,302,v1,9,CSMinus,image2.bmp,5500,,,,,,,,,CSTrial,,,,,,
Class_cond_v1_REG_nervous,302,v1,10,CSMinus,image2.bmp,6000,,,,,,,,,CSTrial,,,,,,
Class_cond_v1_REG_nervous,302,v1,11,CSNoise,image1.bmp,2500,,,,,,,,,CSTrial,,,,,,
Class_cond_v1_REG_nervous,302,v1,12,CSNoise,image1.bmp,10000,,,,,,,,,CSTrial,,,,,,
Class_cond_v1_REG_nervous,302,v1,13,CSNoise,image1.bmp,8000,,,,,,,,,CSTrial,,,,,,
Class_cond_v1_REG_nervous,302,v1,14,CSNoise,image1.bmp,6000,,,,,,,,,CSTrial,,,,,,
Class_cond_v1_REG_nervous,302,v1,15,CSMinus,image2.bmp,6500,,,,,,,,,CSTrial,,,,,,
Class_cond_v1_REG_nervous,302,v1,16,CSPlus,image1.bmp,3000,,,,,,,,,CSTrial,,,,,,
Class_cond_v1_REG_nervous,302,v1,17,CSMinus,image2.bmp,8500,,,,,,,,,CSTrial,,,,,,
Class_cond_v1_REG_nervous,302,v1,18,CSMinus,image2.bmp,1000,,,,,,,,,CSTrial,,,,,,
Class_cond_v1_REG_nervous,302,v1,19,,,,CSMinus,image2.bmp,,,,4,9292,980801,PreRating1,1,5023,985865,,,
Class_cond_v1_REG_nervous,302,v1,20,,,,CSPlus,image1.bmp,,,,5,3196,989121,PreRating1,1,4283,993441,,,
Class_cond_v1_REG_nervous,308,v1,1,,,,CSPlus,image1.bmp,4,3510,13181,,,,PreRating,,,,2,2013,15234
Class_cond_v1_REG_nervous,308,v1,2,,,,CSMinus,image2.bmp,5,1994,17281,,,,PreRating,,,,2,1893,19214
Class_cond_v1_REG_nervous,308,v1,3,CSNoise,image1.bmp,5500,,,,,,,,,CSTrial,,,,,,
Class_cond_v1_REG_nervous,308,v1,4,CSNoise,image1.bmp,8500,,,,,,,,,CSTrial,,,,,,
Class_cond_v1_REG_nervous,308,v1,5,CSPlus,image1.bmp,500,,,,,,,,,CSTrial,,,,,,
Class_cond_v1_REG_nervous,308,v1,6,CSMinus,image2.bmp,1000,,,,,,,,,CSTrial,,,,,,
Class_cond_v1_REG_nervous,308,v1,7,CSMinus,image2.bmp,5000,,,,,,,,,CSTrial,,,,,,
Class_cond_v1_REG_nervous,308,v1,8,CSMinus,image2.bmp,2500,,,,,,,,,CSTrial,,,,,,
Class_cond_v1_REG_nervous,308,v1,9,CSMinus,image2.bmp,5500,,,,,,,,,CSTrial,,,,,,
Class_cond_v1_REG_nervous,308,v1,10,CSMinus,image2.bmp,6000,,,,,,,,,CSTrial,,,,,,
Class_cond_v1_REG_nervous,308,v1,11,CSNoise,image1.bmp,2500,,,,,,,,,CSTrial,,,,,,
Class_cond_v1_REG_nervous,308,v1,12,CSNoise,image1.bmp,10000,,,,,,,,,CSTrial,,,,,,
Class_cond_v1_REG_nervous,308,v1,13,CSNoise,image1.bmp,8000,,,,,,,,,CSTrial,,,,,,
Class_cond_v1_REG_nervous,308,v1,14,CSNoise,image1.bmp,6000,,,,,,,,,CSTrial,,,,,,
Class_cond_v1_REG_nervous,308,v1,15,CSMinus,image2.bmp,6500,,,,,,,,,CSTrial,,,,,,
Class_cond_v1_REG_nervous,308,v1,16,CSPlus,image1.bmp,3000,,,,,,,,,CSTrial,,,,,,
Class_cond_v1_REG_nervous,308,v1,17,CSMinus,image2.bmp,8500,,,,,,,,,CSTrial,,,,,,
Class_cond_v1_REG_nervous,308,v1,18,CSMinus,image2.bmp,1000,,,,,,,,,CSTrial,,,,,,
Class_cond_v1_REG_nervous,308,v1,19,,,,CSMinus,image2.bmp,,,,5,3928,301686,PreRating1,2,1540,303264,,,
Class_cond_v1_REG_nervous,308,v1,20,,,,CSPlus,image1.bmp,,,,4,2076,305400,PreRating1,2,1556,306996,,,
Class_cond_v1_REG_nervous,314,v1,1,,,,CSPlus,image1.bmp,4,4084,11574,,,,PreRating,,,,2,4010,15633
Class_cond_v1_REG_nervous,314,v1,2,,,,CSMinus,image2.bmp,3,2762,18468,,,,PreRating,,,,2,2112,20618
Class_cond_v1_REG_nervous,314,v1,3,CSNoise,image1.bmp,5500,,,,,,,,,CSTrial,,,,,,
Class_cond_v1_REG_nervous,314,v1,4,CSNoise,image1.bmp,8500,,,,,,,,,CSTrial,,,,,,
Class_cond_v1_REG_nervous,314,v1,5,CSPlus,image1.bmp,500,,,,,,,,,CSTrial,,,,,,
Class_cond_v1_REG_nervous,314,v1,6,CSMinus,image2.bmp,1000,,,,,,,,,CSTrial,,,,,,
Class_cond_v1_REG_nervous,314,v1,7,CSMinus,image2.bmp,5000,,,,,,,,,CSTrial,,,,,,
Class_cond_v1_REG_nervous,314,v1,8,CSMinus,image2.bmp,2500,,,,,,,,,CSTrial,,,,,,
Class_cond_v1_REG_nervous,314,v1,9,CSMinus,image2.bmp,5500,,,,,,,,,CSTrial,,,,,,
Class_cond_v1_REG_nervous,314,v1,10,CSMinus,image2.bmp,6000,,,,,,,,,CSTrial,,,,,,
Class_cond_v1_REG_nervous,314,v1,11,CSNoise,image1.bmp,2500,,,,,,,,,CSTrial,,,,,,
Class_cond_v1_REG_nervous,314,v1,12,CSNoise,image1.bmp,10000,,,,,,,,,CSTrial,,,,,,
Class_cond_v1_REG_nervous,314,v1,13,CSNoise,image1.bmp,8000,,,,,,,,,CSTrial,,,,,,
Class_cond_v1_REG_nervous,314,v1,14,CSNoise,image1.bmp,6000,,,,,,,,,CSTrial,,,,,,
Class_cond_v1_REG_nervous,314,v1,15,CSMinus,image2.bmp,6500,,,,,,,,,CSTrial,,,,,,
Class_cond_v1_REG_nervous,314,v1,16,CSPlus,image1.bmp,3000,,,,,,,,,CSTrial,,,,,,
Class_cond_v1_REG_nervous,314,v1,17,CSMinus,image2.bmp,8500,,,,,,,,,CSTrial,,,,,,
Class_cond_v1_REG_nervous,314,v1,18,CSMinus,image2.bmp,1000,,,,,,,,,CSTrial,,,,,,
Class_cond_v1_REG_nervous,314,v1,19,,,,CSPlus,image1.bmp,,,,2,3484,323142,PreRating1,4,1784,324976,,,
Class_cond_v1_REG_nervous,314,v1,20,,,,CSMinus,image2.bmp,,,,4,1805,326830,PreRating1,1,2175,329050,,,
Class_cond_v1_REG_nervous,317,v1,1,,,,CSPlus,image1.bmp,5,3879,33095,,,,PreRating,,,,2,2654,35787
Class_cond_v1_REG_nervous,317,v1,2,,,,CSMinus,image2.bmp,5,1808,37690,,,,PreRating,,,,2,2500,40232
Class_cond_v1_REG_nervous,317,v1,3,CSNoise,image1.bmp,5500,,,,,,,,,CSTrial,,,,,,
Class_cond_v1_REG_nervous,317,v1,4,CSNoise,image1.bmp,8500,,,,,,,,,CSTrial,,,,,,
Class_cond_v1_REG_nervous,317,v1,5,CSPlus,image1.bmp,500,,,,,,,,,CSTrial,,,,,,
Class_cond_v1_REG_nervous,317,v1,6,CSMinus,image2.bmp,1000,,,,,,,,,CSTrial,,,,,,
Class_cond_v1_REG_nervous,317,v1,7,CSMinus,image2.bmp,5000,,,,,,,,,CSTrial,,,,,,
Class_cond_v1_REG_nervous,317,v1,8,CSMinus,image2.bmp,2500,,,,,,,,,CSTrial,,,,,,
Class_cond_v1_REG_nervous,317,v1,9,CSMinus,image2.bmp,5500,,,,,,,,,CSTrial,,,,,,
Class_cond_v1_REG_nervous,317,v1,10,CSMinus,image2.bmp,6000,,,,,,,,,CSTrial,,,,,,
Class_cond_v1_REG_nervous,317,v1,11,CSNoise,image1.bmp,2500,,,,,,,,,CSTrial,,,,,,
Class_cond_v1_REG_nervous,317,v1,12,CSNoise,image1.bmp,10000,,,,,,,,,CSTrial,,,,,,
Class_cond_v1_REG_nervous,317,v1,13,CSNoise,image1.bmp,8000,,,,,,,,,CSTrial,,,,,,
Class_cond_v1_REG_nervous,317,v1,14,CSNoise,image1.bmp,6000,,,,,,,,,CSTrial,,,,,,
Class_cond_v1_REG_nervous,317,v1,15,CSMinus,image2.bmp,6500,,,,,,,,,CSTrial,,,,,,
Class_cond_v1_REG_nervous,317,v1,16,CSPlus,image1.bmp,3000,,,,,,,,,CSTrial,,,,,,
Class_cond_v1_REG_nervous,317,v1,17,CSMinus,image2.bmp,8500,,,,,,,,,CSTrial,,,,,,
Class_cond_v1_REG_nervous,317,v1,18,CSMinus,image2.bmp,1000,,,,,,,,,CSTrial,,,,,,
Class_cond_v1_REG_nervous,317,v1,19,,,,CSPlus,image1.bmp,,,,2,4241,323124,PreRating1,1,3846,327012,,,
Class_cond_v1_REG_nervous,317,v1,20,,,,CSMinus,image2.bmp,,,,5,2315,329381,PreRating1,1,1788,331204,,,
Class_cond_v1_REG_nervous,320,v1,1,,,,CSPlus,image1.bmp,1,5034,12636,,,,PreRating,,,,5,2960,15645
Class_cond_v1_REG_nervous,320,v1,2,,,,CSMinus,image2.bmp,3,2464,18165,,,,PreRating,,,,1,1004,19205
Class_cond_v1_REG_nervous,320,v1,3,CSNoise,image1.bmp,5500,,,,,,,,,CSTrial,,,,,,
Class_cond_v1_REG_nervous,320,v1,4,CSNoise,image1.bmp,8500,,,,,,,,,CSTrial,,,,,,
Class_cond_v1_REG_nervous,320,v1,5,CSPlus,image1.bmp,500,,,,,,,,,CSTrial,,,,,,
Class_cond_v1_REG_nervous,320,v1,6,CSMinus,image2.bmp,1000,,,,,,,,,CSTrial,,,,,,
Class_cond_v1_REG_nervous,320,v1,7,CSMinus,image2.bmp,5000,,,,,,,,,CSTrial,,,,,,
Class_cond_v1_REG_nervous,320,v1,8,CSMinus,image2.bmp,2500,,,,,,,,,CSTrial,,,,,,
Class_cond_v1_REG_nervous,320,v1,9,CSMinus,image2.bmp,5500,,,,,,,,,CSTrial,,,,,,
Class_cond_v1_REG_nervous,320,v1,10,CSMinus,image2.bmp,6000,,,,,,,,,CSTrial,,,,,,
Class_cond_v1_REG_nervous,320,v1,11,CSNoise,image1.bmp,2500,,,,,,,,,CSTrial,,,,,,
Class_cond_v1_REG_nervous,320,v1,12,CSNoise,image1.bmp,10000,,,,,,,,,CSTrial,,,,,,
Class_cond_v1_REG_nervous,320,v1,13,CSNoise,image1.bmp,8000,,,,,,,,,CSTrial,,,,,,
Class_cond_v1_REG_nervous,320,v1,14,CSNoise,image1.bmp,6000,,,,,,,,,CSTrial,,,,,,
Class_cond_v1_REG_nervous,320,v1,15,CSMinus,image2.bmp,6500,,,,,,,,,CSTrial,,,,,,
Class_cond_v1_REG_nervous,320,v1,16,CSPlus,image1.bmp,3000,,,,,,,,,CSTrial,,,,,,
Class_cond_v1_REG_nervous,320,v1,17,CSMinus,image2.bmp,8500,,,,,,,,,CSTrial,,,,,,
Class_cond_v1_REG_nervous,320,v1,18,CSMinus,image2.bmp,1000,,,,,,,,,CSTrial,,,,,,
Class_cond_v1_REG_nervous,320,v1,19,,,,CSMinus,image2.bmp,,,,4,2443,305178,PreRating1,1,4469,309687,,,
Class_cond_v1_REG_nervous,320,v1,20,,,,CSPlus,image1.bmp,,,,4,2943,312694,PreRating1,4,1443,314178,,,
Class_cond_v1_REG_nervous,326,v1,1,,,,CSMinus,image2.bmp,1,2987,16218,,,,PreRating,,,,2,3400,19665
Class_cond_v1_REG_nervous,326,v1,2,,,,CSPlus,image1.bmp,2,4264,23978,,,,PreRating,,,,1,2630,26644
Class_cond_v1_REG_nervous,326,v1,3,CSNoise,image1.bmp,5500,,,,,,,,,CSTrial,,,,,,
Class_cond_v1_REG_nervous,326,v1,4,CSNoise,image1.bmp,8500,,,,,,,,,CSTrial,,,,,,
Class_cond_v1_REG_nervous,326,v1,5,CSPlus,image1.bmp,500,,,,,,,,,CSTrial,,,,,,
Class_cond_v1_REG_nervous,326,v1,6,CSMinus,image2.bmp,1000,,,,,,,,,CSTrial,,,,,,
Class_cond_v1_REG_nervous,326,v1,7,CSMinus,image2.bmp,5000,,,,,,,,,CSTrial,,,,,,
Class_cond_v1_REG_nervous,326,v1,8,CSMinus,image2.bmp,2500,,,,,,,,,CSTrial,,,,,,
Class_cond_v1_REG_nervous,326,v1,9,CSMinus,image2.bmp,5500,,,,,,,,,CSTrial,,,,,,
Class_cond_v1_REG_nervous,326,v1,10,CSMinus,image2.bmp,6000,,,,,,,,,CSTrial,,,,,,
Class_cond_v1_REG_nervous,326,v1,11,CSNoise,image1.bmp,2500,,,,,,,,,CSTrial,,,,,,
Class_cond_v1_REG_nervous,326,v1,12,CSNoise,image1.bmp,10000,,,,,,,,,CSTrial,,,,,,
Class_cond_v1_REG_nervous,326,v1,13,CSNoise,image1.bmp,8000,,,,,,,,,CSTrial,,,,,,
Class_cond_v1_REG_nervous,326,v1,14,CSNoise,image1.bmp,6000,,,,,,,,,CSTrial,,,,,,
Class_cond_v1_REG_nervous,326,v1,15,CSMinus,image2.bmp,6500,,,,,,,,,CSTrial,,,,,,
Class_cond_v1_REG_nervous,326,v1,16,CSPlus,image1.bmp,3000,,,,,,,,,CSTrial,,,,,,
Class_cond_v1_REG_nervous,326,v1,17,CSMinus,image2.bmp,8500,,,,,,,,,CSTrial,,,,,,
Class_cond_v1_REG_nervous,326,v1,18,CSMinus,image2.bmp,1000,,,,,,,,,CSTrial,,,,,,
Class_cond_v1_REG_nervous,326,v1,19,,,,CSMinus,image2.bmp,,,,1,3947,451272,PreRating1,3,3171,454479,,,
Class_cond_v1_REG_nervous,326,v1,20,,,,CSPlus,image1.bmp,,,,2,43,454568,PreRating1,3,2506,457114,,,
Class_cond_v1_REG_nervous,341,v1,1,,,,CSMinus,image2.bmp,5,12162,31177,,,,PreRating,,,,1,2596,33811
Class_cond_v1_REG_nervous,341,v1,2,,,,CSPlus,image1.bmp,5,3666,37547,,,,PreRating,,,,1,2091,39689
Class_cond_v1_REG_nervous,341,v1,3,CSNoise,image1.bmp,5500,,,,,,,,,CSTrial,,,,,,
Class_cond_v1_REG_nervous,341,v1,4,CSNoise,image1.bmp,8500,,,,,,,,,CSTrial,,,,,,
Class_cond_v1_REG_nervous,341,v1,5,CSPlus,image1.bmp,500,,,,,,,,,CSTrial,,,,,,
Class_cond_v1_REG_nervous,341,v1,6,CSMinus,image2.bmp,1000,,,,,,,,,CSTrial,,,,,,
Class_cond_v1_REG_nervous,341,v1,7,CSMinus,image2.bmp,5000,,,,,,,,,CSTrial,,,,,,
Class_cond_v1_REG_nervous,341,v1,8,CSMinus,image2.bmp,2500,,,,,,,,,CSTrial,,,,,,
Class_cond_v1_REG_nervous,341,v1,9,CSMinus,image2.bmp,5500,,,,,,,,,CSTrial,,,,,,
Class_cond_v1_REG_nervous,341,v1,10,CSMinus,image2.bmp,6000,,,,,,,,,CSTrial,,,,,,
Class_cond_v1_REG_nervous,341,v1,11,CSNoise,image1.bmp,2500,,,,,,,,,CSTrial,,,,,,
Class_cond_v1_REG_nervous,341,v1,12,CSNoise,image1.bmp,10000,,,,,,,,,CSTrial,,,,,,
Class_cond_v1_REG_nervous,341,v1,13,CSNoise,image1.bmp,8000,,,,,,,,,CSTrial,,,,,,
Class_cond_v1_REG_nervous,341,v1,14,CSNoise,image1.bmp,6000,,,,,,,,,CSTrial,,,,,,
Class_cond_v1_REG_nervous,341,v1,15,CSMinus,image2.bmp,6500,,,,,,,,,CSTrial,,,,,,
Class_cond_v1_REG_nervous,341,v1,16,CSPlus,image1.bmp,3000,,,,,,,,,CSTrial,,,,,,
Class_cond_v1_REG_nervous,341,v1,17,CSMinus,image2.bmp,8500,,,,,,,,,CSTrial,,,,,,
Class_cond_v1_REG_nervous,341,v1,18,CSMinus,image2.bmp,1000,,,,,,,,,CSTrial,,,,,,
Class_cond_v1_REG_nervous,341,v1,19,,,,CSPlus,image1.bmp,,,,5,6995,467173,PreRating1,1,2054,469265,,,
Class_cond_v1_REG_nervous,341,v1,20,,,,CSMinus,image2.bmp,,,,5,2187,471498,PreRating1,1,1617,473162,,,
Class_cond_v1_REG_nervous,191,v1,1,,,,CSMinus,image2.bmp,4,4443,18983,,,,PreRating,,,,2,5940,24963
Class_cond_v1_REG_nervous,191,v1,2,,,,CSPlus,image1.bmp,4,4328,29368,,,,PreRating,,,,2,1993,31399
Class_cond_v1_REG_nervous,191,v1,3,CSNoise,image1.bmp,5500,,,,,,,,,CSTrial,,,,,,
Class_cond_v1_REG_nervous,191,v1,4,CSNoise,image1.bmp,8500,,,,,,,,,CSTrial,,,,,,
Class_cond_v1_REG_nervous,191,v1,5,CSPlus,image1.bmp,500,,,,,,,,,CSTrial,,,,,,
Class_cond_v1_REG_nervous,191,v1,6,CSMinus,image2.bmp,1000,,,,,,,,,CSTrial,,,,,,
Class_cond_v1_REG_nervous,191,v1,7,CSMinus,image2.bmp,5000,,,,,,,,,CSTrial,,,,,,
Class_cond_v1_REG_nervous,191,v1,8,CSMinus,image2.bmp,2500,,,,,,,,,CSTrial,,,,,,
Class_cond_v1_REG_nervous,191,v1,9,CSMinus,image2.bmp,5500,,,,,,,,,CSTrial,,,,,,
Class_cond_v1_REG_nervous,191,v1,10,CSMinus,image2.bmp,6000,,,,,,,,,CSTrial,,,,,,
Class_cond_v1_REG_nervous,191,v1,11,CSNoise,image1.bmp,2500,,,,,,,,,CSTrial,,,,,,
Class_cond_v1_REG_nervous,191,v1,12,CSNoise,image1.bmp,10000,,,,,,,,,CSTrial,,,,,,
Class_cond_v1_REG_nervous,191,v1,13,CSNoise,image1.bmp,8000,,,,,,,,,CSTrial,,,,,,
Class_cond_v1_REG_nervous,191,v1,14,CSNoise,image1.bmp,6000,,,,,,,,,CSTrial,,,,,,
Class_cond_v1_REG_nervous,191,v1,15,CSMinus,image2.bmp,6500,,,,,,,,,CSTrial,,,,,,
Class_cond_v1_REG_nervous,191,v1,16,CSPlus,image1.bmp,3000,,,,,,,,,CSTrial,,,,,,
Class_cond_v1_REG_nervous,191,v1,17,CSMinus,image2.bmp,8500,,,,,,,,,CSTrial,,,,,,
Class_cond_v1_REG_nervous,191,v1,18,CSMinus,image2.bmp,1000,,,,,,,,,CSTrial,,,,,,
Class_cond_v1_REG_nervous,191,v1,19,,,,CSPlus,image1.bmp,,,,4,8794,386148,PreRating1,2,4274,390461,,,
Class_cond_v1_REG_nervous,191,v1,20,,,,CSMinus,image2.bmp,,,,4,2508,393028,PreRating1,2,1940,395010,,,
Class_cond_v1_REG_nervous,206,v1,1,,,,CSMinus,image2.bmp,5,3166,22436,,,,PreRating,,,,3,3181,25668
Class_cond_v1_REG_nervous,206,v1,2,,,,CSPlus,image1.bmp,5,2671,28391,,,,PreRating,,,,1,2754,31190
Class_cond_v1_REG_nervous,206,v1,3,CSNoise,image1.bmp,5500,,,,,,,,,CSTrial,,,,,,
Class_cond_v1_REG_nervous,206,v1,4,CSNoise,image1.bmp,8500,,,,,,,,,CSTrial,,,,,,
Class_cond_v1_REG_nervous,206,v1,5,CSPlus,image1.bmp,500,,,,,,,,,CSTrial,,,,,,
Class_cond_v1_REG_nervous,206,v1,6,CSMinus,image2.bmp,1000,,,,,,,,,CSTrial,,,,,,
Class_cond_v1_REG_nervous,206,v1,7,CSMinus,image2.bmp,5000,,,,,,,,,CSTrial,,,,,,
Class_cond_v1_REG_nervous,206,v1,8,CSMinus,image2.bmp,2500,,,,,,,,,CSTrial,,,,,,
Class_cond_v1_REG_nervous,206,v1,9,CSMinus,image2.bmp,5500,,,,,,,,,CSTrial,,,,,,
Class_cond_v1_REG_nervous,206,v1,10,CSMinus,image2.bmp,6000,,,,,,,,,CSTrial,,,,,,
Class_cond_v1_REG_nervous,206,v1,11,CSNoise,image1.bmp,2500,,,,,,,,,CSTrial,,,,,,
Class_cond_v1_REG_nervous,206,v1,12,CSNoise,image1.bmp,10000,,,,,,,,,CSTrial,,,,,,
Class_cond_v1_REG_nervous,206,v1,13,CSNoise,image1.bmp,8000,,,,,,,,,CSTrial,,,,,,
Class_cond_v1_REG_nervous,206,v1,14,CSNoise,image1.bmp,6000,,,,,,,,,CSTrial,,,,,,
Class_cond_v1_REG_nervous,206,v1,15,CSMinus,image2.bmp,6500,,,,,,,,,CSTrial,,,,,,
Class_cond_v1_REG_nervous,206,v1,16,CSPlus,image1.bmp,3000,,,,,,,,,CSTrial,,,,,,
Class_cond_v1_REG_nervous,206,v1,17,CSMinus,image2.bmp,8500,,,,,,,,,CSTrial,,,,,,
Class_cond_v1_REG_nervous,206,v1,18,CSMinus,image2.bmp,1000,,,,,,,,,CSTrial,,,,,,
Class_cond_v1_REG_nervous,206,v1,19,,,,CSPlus,image1.bmp,,,,3,4768,312392,PreRating1,2,3995,316436,,,
Class_cond_v1_REG_nervous,206,v1,20,,,,CSMinus,image2.bmp,,,,2,2073,318563,PreRating1,5,3104,321711,,,
Class_cond_v1_REG_nervous,242,v1,1,,,,CSPlus,image1.bmp,1,70,13287,,,,PreRating,,,,2,5011,18345
Class_cond_v1_REG_nervous,242,v1,2,,,,CSMinus,image2.bmp,3,3445,21845,,,,PreRating,,,,3,3093,24977
Class_cond_v1_REG_nervous,242,v1,3,CSNoise,image1.bmp,5500,,,,,,,,,CSTrial,,,,,,
Class_cond_v1_REG_nervous,242,v1,4,CSNoise,image1.bmp,8500,,,,,,,,,CSTrial,,,,,,
Class_cond_v1_REG_nervous,242,v1,5,CSPlus,image1.bmp,500,,,,,,,,,CSTrial,,,,,,
Class_cond_v1_REG_nervous,242,v1,6,CSMinus,image2.bmp,1000,,,,,,,,,CSTrial,,,,,,
Class_cond_v1_REG_nervous,242,v1,7,CSMinus,image2.bmp,5000,,,,,,,,,CSTrial,,,,,,
Class_cond_v1_REG_nervous,242,v1,8,CSMinus,image2.bmp,2500,,,,,,,,,CSTrial,,,,,,
Class_cond_v1_REG_nervous,242,v1,9,CSMinus,image2.bmp,5500,,,,,,,,,CSTrial,,,,,,
Class_cond_v1_REG_nervous,242,v1,10,CSMinus,image2.bmp,6000,,,,,,,,,CSTrial,,,,,,
Class_cond_v1_REG_nervous,242,v1,11,CSNoise,image1.bmp,2500,,,,,,,,,CSTrial,,,,,,
Class_cond_v1_REG_nervous,242,v1,12,CSNoise,image1.bmp,10000,,,,,,,,,CSTrial,,,,,,
Class_cond_v1_REG_nervous,242,v1,13,CSNoise,image1.bmp,8000,,,,,,,,,CSTrial,,,,,,
Class_cond_v1_REG_nervous,242,v1,14,CSNoise,image1.bmp,6000,,,,,,,,,CSTrial,,,,,,
Class_cond_v1_REG_nervous,242,v1,15,CSMinus,image2.bmp,6500,,,,,,,,,CSTrial,,,,,,
Class_cond_v1_REG_nervous,242,v1,16,CSPlus,image1.bmp,3000,,,,,,,,,CSTrial,,,,,,
Class_cond_v1_REG_nervous,242,v1,17,CSMinus,image2.bmp,8500,,,,,,,,,CSTrial,,,,,,
Class_cond_v1_REG_nervous,242,v1,18,CSMinus,image2.bmp,1000,,,,,,,,,CSTrial,,,,,,
Class_cond_v1_REG_nervous,242,v1,19,,,,CSPlus,image1.bmp,,,,3,4615,383498,PreRating1,3,3757,387306,,,
Class_cond_v1_REG_nervous,242,v1,20,,,,CSMinus,image2.bmp,,,,2,2553,389919,PreRating1,1,2434,392399,,,
Class_cond_v1_CB_nervous,110,v1,1,,,,CSPlus,image2.bmp,4,3416,13459,,,,PreRating,,,,2,2358,15868
Class_cond_v1_CB_nervous,110,v1,2,,,,CSMinus,image1.bmp,1,3151,19077,,,,PreRating,,,,2,3937,23063
Class_cond_v1_CB_nervous,110,v1,3,CSNoise,image2.bmp,5500,,,,,,,,,CSTrial,,,,,,
Class_cond_v1_CB_nervous,110,v1,4,CSNoise,image2.bmp,8500,,,,,,,,,CSTrial,,,,,,
Class_cond_v1_CB_nervous,110,v1,5,CSPlus,image2.bmp,500,,,,,,,,,CSTrial,,,,,,
Class_cond_v1_CB_nervous,110,v1,6,CSMinus,image1.bmp,1000,,,,,,,,,CSTrial,,,,,,
Class_cond_v1_CB_nervous,110,v1,7,CSMinus,image1.bmp,5000,,,,,,,,,CSTrial,,,,,,
Class_cond_v1_CB_nervous,110,v1,8,CSMinus,image1.bmp,2500,,,,,,,,,CSTrial,,,,,,
Class_cond_v1_CB_nervous,110,v1,9,CSMinus,image1.bmp,5500,,,,,,,,,CSTrial,,,,,,
Class_cond_v1_CB_nervous,110,v1,10,CSMinus,image1.bmp,6000,,,,,,,,,CSTrial,,,,,,
Class_cond_v1_CB_nervous,110,v1,11,CSNoise,image2.bmp,2500,,,,,,,,,CSTrial,,,,,,
Class_cond_v1_CB_nervous,110,v1,12,CSNoise,image2.bmp,10000,,,,,,,,,CSTrial,,,,,,
Class_cond_v1_CB_nervous,110,v1,13,CSNoise,image2.bmp,8000,,,,,,,,,CSTrial,,,,,,
Class_cond_v1_CB_nervous,110,v1,14,CSNoise,image2.bmp,6000,,,,,,,,,CSTrial,,,,,,
Class_cond_v1_CB_nervous,110,v1,15,CSMinus,image1.bmp,6500,,,,,,,,,CSTrial,,,,,,
Class_cond_v1_CB_nervous,110,v1,16,CSPlus,image2.bmp,3000,,,,,,,,,CSTrial,,,,,,
Class_cond_v1_CB_nervous,110,v1,17,CSMinus,image1.bmp,8500,,,,,,,,,CSTrial,,,,,,
Class_cond_v1_CB_nervous,110,v1,18,CSMinus,image1.bmp,1000,,,,,,,,,CSTrial,,,,,,
Class_cond_v1_CB_nervous,110,v1,19,,,,CSPlus,image2.bmp,,,,4,2888,297819,PreRating1,2,2400,300264,,,
Class_cond_v1_CB_nervous,110,v1,20,,,,CSMinus,image1.bmp,,,,1,1949,302263,PreRating1,3,1859,304173,,,
Class_cond_v1_CB_nervous,128,v1,1,,,,CSPlus,image2.bmp,5,4621,61163,,,,PreRating,,,,2,4510,65719
Class_cond_v1_CB_nervous,128,v1,2,,,,CSMinus,image1.bmp,5,3638,69413,,,,PreRating,,,,2,2484,71942
Class_cond_v1_CB_nervous,128,v1,3,CSNoise,image2.bmp,5500,,,,,,,,,CSTrial,,,,,,
Class_cond_v1_CB_nervous,128,v1,4,CSNoise,image2.bmp,8500,,,,,,,,,CSTrial,,,,,,
Class_cond_v1_CB_nervous,128,v1,5,CSPlus,image2.bmp,500,,,,,,,,,CSTrial,,,,,,
Class_cond_v1_CB_nervous,128,v1,6,CSMinus,image1.bmp,1000,,,,,,,,,CSTrial,,,,,,
Class_cond_v1_CB_nervous,128,v1,7,CSMinus,image1.bmp,5000,,,,,,,,,CSTrial,,,,,,
Class_cond_v1_CB_nervous,128,v1,8,CSMinus,image1.bmp,2500,,,,,,,,,CSTrial,,,,,,
Class_cond_v1_CB_nervous,128,v1,9,CSMinus,image1.bmp,5500,,,,,,,,,CSTrial,,,,,,
Class_cond_v1_CB_nervous,128,v1,10,CSMinus,image1.bmp,6000,,,,,,,,,CSTrial,,,,,,
Class_cond_v1_CB_nervous,128,v1,11,CSNoise,image2.bmp,2500,,,,,,,,,CSTrial,,,,,,
Class_cond_v1_CB_nervous,128,v1,12,CSNoise,image2.bmp,10000,,,,,,,,,CSTrial,,,,,,
Class_cond_v1_CB_nervous,128,v1,13,CSNoise,image2.bmp,8000,,,,,,,,,CSTrial,,,,,,
Class_cond_v1_CB_nervous,128,v1,14,CSNoise,image2.bmp,6000,,,,,,,,,CSTrial,,,,,,
Class_cond_v1_CB_nervous,128,v1,15,CSMinus,image1.bmp,6500,,,,,,,,,CSTrial,,,,,,
Class_cond_v1_CB_nervous,128,v1,16,CSPlus,image2.bmp,3000,,,,,,,,,CSTrial,,,,,,
Class_cond_v1_CB_nervous,128,v1,17,CSMinus,image1.bmp,8500,,,,,,,,,CSTrial,,,,,,
Class_cond_v1_CB_nervous,128,v1,18,CSMinus,image1.bmp,1000,,,,,,,,,CSTrial,,,,,,
Class_cond_v1_CB_nervous,128,v1,19,,,,CSPlus,image2.bmp,,,,5,4470,357530,PreRating1,2,2776,360353,,,
Class_cond_v1_CB_nervous,128,v1,20,,,,CSMinus,image1.bmp,,,,5,1944,362354,PreRating1,2,1280,363673,,,
Class_cond_v1_CB_nervous,140,v1,1,,,,CSPlus,image2.bmp,4,6361,20542,,,,PreRating,,,,2,1200,21781
Class_cond_v1_CB_nervous,140,v1,2,,,,CSMinus,image1.bmp,3,2354,24268,,,,PreRating,,,,2,759,25073
Class_cond_v1_CB_nervous,140,v1,3,CSNoise,image2.bmp,5500,,,,,,,,,CSTrial,,,,,,
Class_cond_v1_CB_nervous,140,v1,4,CSNoise,image2.bmp,8500,,,,,,,,,CSTrial,,,,,,
Class_cond_v1_CB_nervous,140,v1,5,CSPlus,image2.bmp,500,,,,,,,,,CSTrial,,,,,,
Class_cond_v1_CB_nervous,140,v1,6,CSMinus,image1.bmp,1000,,,,,,,,,CSTrial,,,,,,
Class_cond_v1_CB_nervous,140,v1,7,CSMinus,image1.bmp,5000,,,,,,,,,CSTrial,,,,,,
Class_cond_v1_CB_nervous,140,v1,8,CSMinus,image1.bmp,2500,,,,,,,,,CSTrial,,,,,,
Class_cond_v1_CB_nervous,140,v1,9,CSMinus,image1.bmp,5500,,,,,,,,,CSTrial,,,,,,
Class_cond_v1_CB_nervous,140,v1,10,CSMinus,image1.bmp,6000,,,,,,,,,CSTrial,,,,,,
Class_cond_v1_CB_nervous,140,v1,11,CSNoise,image2.bmp,2500,,,,,,,,,CSTrial,,,,,,
Class_cond_v1_CB_nervous,140,v1,12,CSNoise,image2.bmp,10000,,,,,,,,,CSTrial,,,,,,
Class_cond_v1_CB_nervous,140,v1,13,CSNoise,image2.bmp,8000,,,,,,,,,CSTrial,,,,,,
Class_cond_v1_CB_nervous,140,v1,14,CSNoise,image2.bmp,6000,,,,,,,,,CSTrial,,,,,,
Class_cond_v1_CB_nervous,140,v1,15,CSMinus,image1.bmp,6500,,,,,,,,,CSTrial,,,,,,
Class_cond_v1_CB_nervous,140,v1,16,CSPlus,image2.bmp,3000,,,,,,,,,CSTrial,,,,,,
Class_cond_v1_CB_nervous,140,v1,17,CSMinus,image1.bmp,8500,,,,,,,,,CSTrial,,,,,,
Class_cond_v1_CB_nervous,140,v1,18,CSMinus,image1.bmp,1000,,,,,,,,,CSTrial,,,,,,
Class_cond_v1_CB_nervous,140,v1,19,,,,CSMinus,image1.bmp,,,,3,2632,301983,PreRating1,2,971,303005,,,
Class_cond_v1_CB_nervous,140,v1,20,,,,CSPlus,image2.bmp,,,,4,1090,304141,PreRating1,2,800,304984,,,
Class_cond_v1_CB_nervous,176,v1,1,,,,CSMinus,image1.bmp,3,13874,32076,,,,PreRating,,,,1,20076,52194
Class_cond_v1_CB_nervous,176,v1,2,,,,CSPlus,image2.bmp,3,6890,59157,,,,PreRating,,,,1,1801,61001
Class_cond_v1_CB_nervous,176,v1,3,CSNoise,image2.bmp,5500,,,,,,,,,CSTrial,,,,,,
Class_cond_v1_CB_nervous,176,v1,4,CSNoise,image2.bmp,8500,,,,,,,,,CSTrial,,,,,,
Class_cond_v1_CB_nervous,176,v1,5,CSPlus,image2.bmp,500,,,,,,,,,CSTrial,,,,,,
Class_cond_v1_CB_nervous,176,v1,6,CSMinus,image1.bmp,1000,,,,,,,,,CSTrial,,,,,,
Class_cond_v1_CB_nervous,176,v1,7,CSMinus,image1.bmp,5000,,,,,,,,,CSTrial,,,,,,
Class_cond_v1_CB_nervous,176,v1,8,CSMinus,image1.bmp,2500,,,,,,,,,CSTrial,,,,,,
Class_cond_v1_CB_nervous,176,v1,9,CSMinus,image1.bmp,5500,,,,,,,,,CSTrial,,,,,,
Class_cond_v1_CB_nervous,176,v1,10,CSMinus,image1.bmp,6000,,,,,,,,,CSTrial,,,,,,
Class_cond_v1_CB_nervous,176,v1,11,CSNoise,image2.bmp,2500,,,,,,,,,CSTrial,,,,,,
Class_cond_v1_CB_nervous,176,v1,12,CSNoise,image2.bmp,10000,,,,,,,,,CSTrial,,,,,,
Class_cond_v1_CB_nervous,176,v1,13,CSNoise,image2.bmp,8000,,,,,,,,,CSTrial,,,,,,
Class_cond_v1_CB_nervous,176,v1,14,CSNoise,image2.bmp,6000,,,,,,,,,CSTrial,,,,,,
Class_cond_v1_CB_nervous,176,v1,15,CSMinus,image1.bmp,6500,,,,,,,,,CSTrial,,,,,,
Class_cond_v1_CB_nervous,176,v1,16,CSPlus,image2.bmp,3000,,,,,,,,,CSTrial,,,,,,
Class_cond_v1_CB_nervous,176,v1,17,CSMinus,image1.bmp,8500,,,,,,,,,CSTrial,,,,,,
Class_cond_v1_CB_nervous,176,v1,18,CSMinus,image1.bmp,1000,,,,,,,,,CSTrial,,,,,,
Class_cond_v1_CB_nervous,176,v1,19,,,,CSPlus,image2.bmp,,,,3,12813,360966,PreRating1,1,2061,363064,,,
Class_cond_v1_CB_nervous,176,v1,20,,,,CSMinus,image1.bmp,,,,3,2437,365556,PreRating1,1,1026,366628,,,
Class_cond_v1_CB_nervous,182,v1,1,,,,CSMinus,image1.bmp,1,11715,37011,,,,PreRating,,,,2,6237,43299
Class_cond_v1_CB_nervous,182,v1,2,,,,CSPlus,image2.bmp,5,6386,49731,,,,PreRating,,,,1,6025,55803
Class_cond_v1_CB_nervous,182,v1,3,CSNoise,image2.bmp,5500,,,,,,,,,CSTrial,,,,,,
Class_cond_v1_CB_nervous,182,v1,4,CSNoise,image2.bmp,8500,,,,,,,,,CSTrial,,,,,,
Class_cond_v1_CB_nervous,182,v1,5,CSPlus,image2.bmp,500,,,,,,,,,CSTrial,,,,,,
Class_cond_v1_CB_nervous,182,v1,6,CSMinus,image1.bmp,1000,,,,,,,,,CSTrial,,,,,,
Class_cond_v1_CB_nervous,182,v1,7,CSMinus,image1.bmp,5000,,,,,,,,,CSTrial,,,,,,
Class_cond_v1_CB_nervous,182,v1,8,CSMinus,image1.bmp,2500,,,,,,,,,CSTrial,,,,,,
Class_cond_v1_CB_nervous,182,v1,9,CSMinus,image1.bmp,5500,,,,,,,,,CSTrial,,,,,,
Class_cond_v1_CB_nervous,182,v1,10,CSMinus,image1.bmp,6000,,,,,,,,,CSTrial,,,,,,
Class_cond_v1_CB_nervous,182,v1,11,CSNoise,image2.bmp,2500,,,,,,,,,CSTrial,,,,,,
Class_cond_v1_CB_nervous,182,v1,12,CSNoise,image2.bmp,10000,,,,,,,,,CSTrial,,,,,,
Class_cond_v1_CB_nervous,182,v1,13,CSNoise,image2.bmp,8000,,,,,,,,,CSTrial,,,,,,
Class_cond_v1_CB_nervous,182,v1,14,CSNoise,image2.bmp,6000,,,,,,,,,CSTrial,,,,,,
Class_cond_v1_CB_nervous,182,v1,15,CSMinus,image1.bmp,6500,,,,,,,,,CSTrial,,,,,,
Class_cond_v1_CB_nervous,182,v1,16,CSPlus,image2.bmp,3000,,,,,,,,,CSTrial,,,,,,
Class_cond_v1_CB_nervous,182,v1,17,CSMinus,image1.bmp,8500,,,,,,,,,CSTrial,,,,,,
Class_cond_v1_CB_nervous,182,v1,18,CSMinus,image1.bmp,1000,,,,,,,,,CSTrial,,,,,,
Class_cond_v1_CB_nervous,182,v1,19,,,,CSPlus,image2.bmp,,,,4,14291,355889,PreRating1,2,5478,361409,,,
Class_cond_v1_CB_nervous,182,v1,20,,,,CSMinus,image1.bmp,,,,1,5873,367337,PreRating1,2,4669,372049,,,
Class_cond_v1_CB_nervous,203,v1,1,,,,CSPlus,image2.bmp,3,12393,41782,,,,PreRating,,,,1,9050,50871
Class_cond_v1_CB_nervous,203,v1,2,,,,CSMinus,image1.bmp,1,4288,55259,,,,PreRating,,,,5,7407,62711
Class_cond_v1_CB_nervous,203,v1,3,CSNoise,image2.bmp,5500,,,,,,,,,CSTrial,,,,,,
Class_cond_v1_CB_nervous,203,v1,4,CSNoise,image2.bmp,8500,,,,,,,,,CSTrial,,,,,,
Class_cond_v1_CB_nervous,203,v1,5,CSPlus,image2.bmp,500,,,,,,,,,CSTrial,,,,,,
Class_cond_v1_CB_nervous,203,v1,6,CSMinus,image1.bmp,1000,,,,,,,,,CSTrial,,,,,,
Class_cond_v1_CB_nervous,203,v1,7,CSMinus,image1.bmp,5000,,,,,,,,,CSTrial,,,,,,
Class_cond_v1_CB_nervous,203,v1,8,CSMinus,image1.bmp,2500,,,,,,,,,CSTrial,,,,,,
Class_cond_v1_CB_nervous,203,v1,9,CSMinus,image1.bmp,5500,,,,,,,,,CSTrial,,,,,,
Class_cond_v1_CB_nervous,203,v1,10,CSMinus,image1.bmp,6000,,,,,,,,,CSTrial,,,,,,
Class_cond_v1_CB_nervous,203,v1,11,CSNoise,image2.bmp,2500,,,,,,,,,CSTrial,,,,,,
Class_cond_v1_CB_nervous,203,v1,12,CSNoise,image2.bmp,10000,,,,,,,,,CSTrial,,,,,,
Class_cond_v1_CB_nervous,203,v1,13,CSNoise,image2.bmp,8000,,,,,,,,,CSTrial,,,,,,
Class_cond_v1_CB_nervous,203,v1,14,CSNoise,image2.bmp,6000,,,,,,,,,CSTrial,,,,,,
Class_cond_v1_CB_nervous,203,v1,15,CSMinus,image1.bmp,6500,,,,,,,,,CSTrial,,,,,,
Class_cond_v1_CB_nervous,203,v1,16,CSPlus,image2.bmp,3000,,,,,,,,,CSTrial,,,,,,
Class_cond_v1_CB_nervous,203,v1,17,CSMinus,image1.bmp,8500,,,,,,,,,CSTrial,,,,,,
Class_cond_v1_CB_nervous,203,v1,18,CSMinus,image1.bmp,1000,,,,,,,,,CSTrial,,,,,,
Class_cond_v1_CB_nervous,203,v1,19,,,,CSPlus,image2.bmp,,,,1,9733,348125,PreRating1,5,4219,352394,,,
Class_cond_v1_CB_nervous,203,v1,20,,,,CSMinus,image1.bmp,,,,1,5103,357544,PreRating1,1,5226,362817,,,
Class_cond_v1_CB_nervous,224,v1,1,,,,CSPlus,image2.bmp,3,14862,67583,,,,PreRating,,,,1,33,67654
Class_cond_v1_CB_nervous,224,v1,2,,,,CSMinus,image1.bmp,2,7401,75122,,,,PreRating,,,,3,18082,93252
Class_cond_v1_CB_nervous,224,v1,3,CSNoise,image2.bmp,5500,,,,,,,,,CSTrial,,,,,,
Class_cond_v1_CB_nervous,224,v1,4,CSNoise,image2.bmp,8500,,,,,,,,,CSTrial,,,,,,
Class_cond_v1_CB_nervous,224,v1,5,CSPlus,image2.bmp,500,,,,,,,,,CSTrial,,,,,,
Class_cond_v1_CB_nervous,224,v1,6,CSMinus,image1.bmp,1000,,,,,,,,,CSTrial,,,,,,
Class_cond_v1_CB_nervous,224,v1,7,CSMinus,image1.bmp,5000,,,,,,,,,CSTrial,,,,,,
Class_cond_v1_CB_nervous,224,v1,8,CSMinus,image1.bmp,2500,,,,,,,,,CSTrial,,,,,,
Class_cond_v1_CB_nervous,224,v1,9,CSMinus,image1.bmp,5500,,,,,,,,,CSTrial,,,,,,
Class_cond_v1_CB_nervous,224,v1,10,CSMinus,image1.bmp,6000,,,,,,,,,CSTrial,,,,,,
Class_cond_v1_CB_nervous,224,v1,11,CSNoise,image2.bmp,2500,,,,,,,,,CSTrial,,,,,,
Class_cond_v1_CB_nervous,224,v1,12,CSNoise,image2.bmp,10000,,,,,,,,,CSTrial,,,,,,
Class_cond_v1_CB_nervous,224,v1,13,CSNoise,image2.bmp,8000,,,,,,,,,CSTrial,,,,,,
Class_cond_v1_CB_nervous,224,v1,14,CSNoise,image2.bmp,6000,,,,,,,,,CSTrial,,,,,,
Class_cond_v1_CB_nervous,224,v1,15,CSMinus,image1.bmp,6500,,,,,,,,,CSTrial,,,,,,
Class_cond_v1_CB_nervous,224,v1,16,CSPlus,image2.bmp,3000,,,,,,,,,CSTrial,,,,,,
Class_cond_v1_CB_nervous,224,v1,17,CSMinus,image1.bmp,8500,,,,,,,,,CSTrial,,,,,,
Class_cond_v1_CB_nervous,224,v1,18,CSMinus,image1.bmp,1000,,,,,,,,,CSTrial,,,,,,
Class_cond_v1_CB_nervous,224,v1,19,,,,CSPlus,image2.bmp,,,,2,39813,417269,PreRating1,1,7497,424818,,,
Class_cond_v1_CB_nervous,224,v1,20,,,,CSMinus,image1.bmp,,,,1,2675,427545,PreRating1,1,4310,431897,,,
Class_cond_v1_CB_nervous,230,v1,1,,,,CSMinus,image1.bmp,3,49863,70763,,,,PreRating,,,,1,2268,73083
Class_cond_v1_CB_nervous,230,v1,2,,,,CSPlus,image2.bmp,3,1905,75053,,,,PreRating,,,,1,2526,77624
Class_cond_v1_CB_nervous,230,v1,3,CSNoise,image2.bmp,5500,,,,,,,,,CSTrial,,,,,,
Class_cond_v1_CB_nervous,230,v1,4,CSNoise,image2.bmp,8500,,,,,,,,,CSTrial,,,,,,
Class_cond_v1_CB_nervous,230,v1,5,CSPlus,image2.bmp,500,,,,,,,,,CSTrial,,,,,,
Class_cond_v1_CB_nervous,230,v1,6,CSMinus,image1.bmp,1000,,,,,,,,,CSTrial,,,,,,
Class_cond_v1_CB_nervous,230,v1,7,CSMinus,image1.bmp,5000,,,,,,,,,CSTrial,,,,,,
Class_cond_v1_CB_nervous,230,v1,8,CSMinus,image1.bmp,2500,,,,,,,,,CSTrial,,,,,,
Class_cond_v1_CB_nervous,230,v1,9,CSMinus,image1.bmp,5500,,,,,,,,,CSTrial,,,,,,
Class_cond_v1_CB_nervous,230,v1,10,CSMinus,image1.bmp,6000,,,,,,,,,CSTrial,,,,,,
Class_cond_v1_CB_nervous,230,v1,11,CSNoise,image2.bmp,2500,,,,,,,,,CSTrial,,,,,,
Class_cond_v1_CB_nervous,230,v1,12,CSNoise,image2.bmp,10000,,,,,,,,,CSTrial,,,,,,
Class_cond_v1_CB_nervous,230,v1,13,CSNoise,image2.bmp,8000,,,,,,,,,CSTrial,,,,,,
Class_cond_v1_CB_nervous,230,v1,14,CSNoise,image2.bmp,6000,,,,,,,,,CSTrial,,,,,,
Class_cond_v1_CB_nervous,230,v1,15,CSMinus,image1.bmp,6500,,,,,,,,,CSTrial,,,,,,
Class_cond_v1_CB_nervous,230,v1,16,CSPlus,image2.bmp,3000,,,,,,,,,CSTrial,,,,,,
Class_cond_v1_CB_nervous,230,v1,17,CSMinus,image1.bmp,8500,,,,,,,,,CSTrial,,,,,,
Class_cond_v1_CB_nervous,230,v1,18,CSMinus,image1.bmp,1000,,,,,,,,,CSTrial,,,,,,
Class_cond_v1_CB_nervous,230,v1,19,,,,CSMinus,image1.bmp,,,,3,3330,358015,PreRating1,1,2136,360187,,,
Class_cond_v1_CB_nervous,230,v1,20,,,,CSPlus,image2.bmp,,,,3,2521,362756,PreRating1,1,2270,365071,,,
Class_cond_v1_CB_nervous,254,v1,1,,,,CSPlus,image2.bmp,5,2069,22421,,,,PreRating,,,,2,2537,25005
Class_cond_v1_CB_nervous,254,v1,2,,,,CSMinus,image1.bmp,5,1647,26732,,,,PreRating,,,,2,2027,28795
Class_cond_v1_CB_nervous,254,v1,3,CSNoise,image2.bmp,5500,,,,,,,,,CSTrial,,,,,,
Class_cond_v1_CB_nervous,254,v1,4,CSNoise,image2.bmp,8500,,,,,,,,,CSTrial,,,,,,
Class_cond_v1_CB_nervous,254,v1,5,CSPlus,image2.bmp,500,,,,,,,,,CSTrial,,,,,,
Class_cond_v1_CB_nervous,254,v1,6,CSMinus,image1.bmp,1000,,,,,,,,,CSTrial,,,,,,
Class_cond_v1_CB_nervous,254,v1,7,CSMinus,image1.bmp,5000,,,,,,,,,CSTrial,,,,,,
Class_cond_v1_CB_nervous,254,v1,8,CSMinus,image1.bmp,2500,,,,,,,,,CSTrial,,,,,,
Class_cond_v1_CB_nervous,254,v1,9,CSMinus,image1.bmp,5500,,,,,,,,,CSTrial,,,,,,
Class_cond_v1_CB_nervous,254,v1,10,CSMinus,image1.bmp,6000,,,,,,,,,CSTrial,,,,,,
Class_cond_v1_CB_nervous,254,v1,11,CSNoise,image2.bmp,2500,,,,,,,,,CSTrial,,,,,,
Class_cond_v1_CB_nervous,254,v1,12,CSNoise,image2.bmp,10000,,,,,,,,,CSTrial,,,,,,
Class_cond_v1_CB_nervous,254,v1,13,CSNoise,image2.bmp,8000,,,,,,,,,CSTrial,,,,,,
Class_cond_v1_CB_nervous,254,v1,14,CSNoise,image2.bmp,6000,,,,,,,,,CSTrial,,,,,,
Class_cond_v1_CB_nervous,254,v1,15,CSMinus,image1.bmp,6500,,,,,,,,,CSTrial,,,,,,
Class_cond_v1_CB_nervous,254,v1,16,CSPlus,image2.bmp,3000,,,,,,,,,CSTrial,,,,,,
Class_cond_v1_CB_nervous,254,v1,17,CSMinus,image1.bmp,8500,,,,,,,,,CSTrial,,,,,,
Class_cond_v1_CB_nervous,254,v1,18,CSMinus,image1.bmp,1000,,,,,,,,,CSTrial,,,,,,
Class_cond_v1_CB_nervous,254,v1,19,,,,CSPlus,image2.bmp,,,,5,3807,343127,PreRating1,2,2210,345380,,,
Class_cond_v1_CB_nervous,254,v1,20,,,,CSMinus,image1.bmp,,,,5,1607,347044,PreRating1,2,1304,348391,,,
Class_cond_v1_CB_nervous,264,v1,1,,,,CSPlus,image2.bmp,5,3535,14432,,,,PreRating,,,,1,2233,16713
Class_cond_v1_CB_nervous,264,v1,2,,,,CSMinus,image1.bmp,5,2468,19264,,,,PreRating,,,,1,1843,21156
Class_cond_v1_CB_nervous,264,v1,3,CSNoise,image2.bmp,5500,,,,,,,,,CSTrial,,,,,,
Class_cond_v1_CB_nervous,264,v1,4,CSNoise,image2.bmp,8500,,,,,,,,,CSTrial,,,,,,
Class_cond_v1_CB_nervous,264,v1,5,CSPlus,image2.bmp,500,,,,,,,,,CSTrial,,,,,,
Class_cond_v1_CB_nervous,264,v1,6,CSMinus,image1.bmp,1000,,,,,,,,,CSTrial,,,,,,
Class_cond_v1_CB_nervous,264,v1,7,CSMinus,image1.bmp,5000,,,,,,,,,CSTrial,,,,,,
Class_cond_v1_CB_nervous,264,v1,8,CSMinus,image1.bmp,2500,,,,,,,,,CSTrial,,,,,,
Class_cond_v1_CB_nervous,264,v1,9,CSMinus,image1.bmp,5500,,,,,,,,,CSTrial,,,,,,
Class_cond_v1_CB_nervous,264,v1,10,CSMinus,image1.bmp,6000,,,,,,,,,CSTrial,,,,,,
Class_cond_v1_CB_nervous,264,v1,11,CSNoise,image2.bmp,2500,,,,,,,,,CSTrial,,,,,,
Class_cond_v1_CB_nervous,264,v1,12,CSNoise,image2.bmp,10000,,,,,,,,,CSTrial,,,,,,
Class_cond_v1_CB_nervous,264,v1,13,CSNoise,image2.bmp,8000,,,,,,,,,CSTrial,,,,,,
Class_cond_v1_CB_nervous,264,v1,14,CSNoise,image2.bmp,6000,,,,,,,,,CSTrial,,,,,,
Class_cond_v1_CB_nervous,264,v1,15,CSMinus,image1.bmp,6500,,,,,,,,,CSTrial,,,,,,
Class_cond_v1_CB_nervous,264,v1,16,CSPlus,image2.bmp,3000,,,,,,,,,CSTrial,,,,,,
Class_cond_v1_CB_nervous,264,v1,17,CSMinus,image1.bmp,8500,,,,,,,,,CSTrial,,,,,,
Class_cond_v1_CB_nervous,264,v1,18,CSMinus,image1.bmp,1000,,,,,,,,,CSTrial,,,,,,
Class_cond_v1_CB_nervous,264,v1,19,,,,CSMinus,image1.bmp,,,,5,7295,373622,PreRating1,2,348,374007,,,
Class_cond_v1_CB_nervous,264,v1,20,,,,CSPlus,image2.bmp,,,,5,507,374566,PreRating1,2,570,375179,,,
Class_cond_v1_CB_nervous,278,v1,1,,,,CSPlus,image2.bmp,5,294305,325475,,,,PreRating,,,,1,4924,330447
Class_cond_v1_CB_nervous,278,v1,2,,,,CSMinus,image1.bmp,5,148,330654,,,,PreRating,,,,1,5034,335724
Class_cond_v1_CB_nervous,278,v1,3,CSNoise,image2.bmp,5500,,,,,,,,,CSTrial,,,,,,
Class_cond_v1_CB_nervous,278,v1,4,CSNoise,image2.bmp,8500,,,,,,,,,CSTrial,,,,,,
Class_cond_v1_CB_nervous,278,v1,5,CSPlus,image2.bmp,500,,,,,,,,,CSTrial,,,,,,
Class_cond_v1_CB_nervous,278,v1,6,CSMinus,image1.bmp,1000,,,,,,,,,CSTrial,,,,,,
Class_cond_v1_CB_nervous,278,v1,7,CSMinus,image1.bmp,5000,,,,,,,,,CSTrial,,,,,,
Class_cond_v1_CB_nervous,278,v1,8,CSMinus,image1.bmp,2500,,,,,,,,,CSTrial,,,,,,
Class_cond_v1_CB_nervous,278,v1,9,CSMinus,image1.bmp,5500,,,,,,,,,CSTrial,,,,,,
Class_cond_v1_CB_nervous,278,v1,10,CSMinus,image1.bmp,6000,,,,,,,,,CSTrial,,,,,,
Class_cond_v1_CB_nervous,278,v1,11,CSNoise,image2.bmp,2500,,,,,,,,,CSTrial,,,,,,
Class_cond_v1_CB_nervous,278,v1,12,CSNoise,image2.bmp,10000,,,,,,,,,CSTrial,,,,,,
Class_cond_v1_CB_nervous,278,v1,13,CSNoise,image2.bmp,8000,,,,,,,,,CSTrial,,,,,,
Class_cond_v1_CB_nervous,278,v1,14,CSNoise,image2.bmp,6000,,,,,,,,,CSTrial,,,,,,
Class_cond_v1_CB_nervous,278,v1,15,CSMinus,image1.bmp,6500,,,,,,,,,CSTrial,,,,,,
Class_cond_v1_CB_nervous,278,v1,16,CSPlus,image2.bmp,3000,,,,,,,,,CSTrial,,,,,,
Class_cond_v1_CB_nervous,278,v1,17,CSMinus,image1.bmp,8500,,,,,,,,,CSTrial,,,,,,
Class_cond_v1_CB_nervous,278,v1,18,CSMinus,image1.bmp,1000,,,,,,,,,CSTrial,,,,,,
Class_cond_v1_CB_nervous,278,v1,19,,,,CSMinus,image1.bmp,,,,1,15013,630156,PreRating1,1,4460,634652,,,
Class_cond_v1_CB_nervous,278,v1,20,,,,CSPlus,image2.bmp,,,,5,4799,639508,PreRating1,1,3765,643324,,,
Class_cond_v1_CB_nervous,286,v1,1,,,,CSPlus,image2.bmp,4,3242,9123,,,,PreRating,,,,1,2288,11452
Class_cond_v1_CB_nervous,286,v1,2,,,,CSMinus,image1.bmp,3,1892,13389,,,,PreRating,,,,1,866,14296
Class_cond_v1_CB_nervous,286,v1,3,CSNoise,image2.bmp,5500,,,,,,,,,CSTrial,,,,,,
Class_cond_v1_CB_nervous,286,v1,4,CSNoise,image2.bmp,8500,,,,,,,,,CSTrial,,,,,,
Class_cond_v1_CB_nervous,286,v1,5,CSPlus,image2.bmp,500,,,,,,,,,CSTrial,,,,,,
Class_cond_v1_CB_nervous,286,v1,6,CSMinus,image1.bmp,1000,,,,,,,,,CSTrial,,,,,,
Class_cond_v1_CB_nervous,286,v1,7,CSMinus,image1.bmp,5000,,,,,,,,,CSTrial,,,,,,
Class_cond_v1_CB_nervous,286,v1,8,CSMinus,image1.bmp,2500,,,,,,,,,CSTrial,,,,,,
Class_cond_v1_CB_nervous,286,v1,9,CSMinus,image1.bmp,5500,,,,,,,,,CSTrial,,,,,,
Class_cond_v1_CB_nervous,286,v1,10,CSMinus,image1.bmp,6000,,,,,,,,,CSTrial,,,,,,
Class_cond_v1_CB_nervous,286,v1,11,CSNoise,image2.bmp,2500,,,,,,,,,CSTrial,,,,,,
Class_cond_v1_CB_nervous,286,v1,12,CSNoise,image2.bmp,10000,,,,,,,,,CSTrial,,,,,,
Class_cond_v1_CB_nervous,286,v1,13,CSNoise,image2.bmp,8000,,,,,,,,,CSTrial,,,,,,
Class_cond_v1_CB_nervous,286,v1,14,CSNoise,image2.bmp,6000,,,,,,,,,CSTrial,,,,,,
Class_cond_v1_CB_nervous,286,v1,15,CSMinus,image1.bmp,6500,,,,,,,,,CSTrial,,,,,,
Class_cond_v1_CB_nervous,286,v1,16,CSPlus,image2.bmp,3000,,,,,,,,,CSTrial,,,,,,
Class_cond_v1_CB_nervous,286,v1,17,CSMinus,image1.bmp,8500,,,,,,,,,CSTrial,,,,,,
Class_cond_v1_CB_nervous,286,v1,18,CSMinus,image1.bmp,1000,,,,,,,,,CSTrial,,,,,,
Class_cond_v1_CB_nervous,286,v1,19,,,,CSMinus,image1.bmp,,,,4,3809,301491,PreRating1,1,1862,303394,,,
Class_cond_v1_CB_nervous,286,v1,20,,,,CSPlus,image2.bmp,,,,2,2769,306217,PreRating1,2,1607,307872,,,
Class_cond_v1_CB_nervous,289,v1,1,,,,CSMinus,image1.bmp,3,2253,35490,,,,PreRating,,,,3,1156,36692
Class_cond_v1_CB_nervous,289,v1,2,,,,CSPlus,image2.bmp,5,1918,38654,,,,PreRating,,,,1,733,39436
Class_cond_v1_CB_nervous,289,v1,3,CSNoise,image2.bmp,5500,,,,,,,,,CSTrial,,,,,,
Class_cond_v1_CB_nervous,289,v1,4,CSNoise,image2.bmp,8500,,,,,,,,,CSTrial,,,,,,
Class_cond_v1_CB_nervous,289,v1,5,CSPlus,image2.bmp,500,,,,,,,,,CSTrial,,,,,,
Class_cond_v1_CB_nervous,289,v1,6,CSMinus,image1.bmp,1000,,,,,,,,,CSTrial,,,,,,
Class_cond_v1_CB_nervous,289,v1,7,CSMinus,image1.bmp,5000,,,,,,,,,CSTrial,,,,,,
Class_cond_v1_CB_nervous,289,v1,8,CSMinus,image1.bmp,2500,,,,,,,,,CSTrial,,,,,,
Class_cond_v1_CB_nervous,289,v1,9,CSMinus,image1.bmp,5500,,,,,,,,,CSTrial,,,,,,
Class_cond_v1_CB_nervous,289,v1,10,CSMinus,image1.bmp,6000,,,,,,,,,CSTrial,,,,,,
Class_cond_v1_CB_nervous,289,v1,11,CSNoise,image2.bmp,2500,,,,,,,,,CSTrial,,,,,,
Class_cond_v1_CB_nervous,289,v1,12,CSNoise,image2.bmp,10000,,,,,,,,,CSTrial,,,,,,
Class_cond_v1_CB_nervous,289,v1,13,CSNoise,image2.bmp,8000,,,,,,,,,CSTrial,,,,,,
Class_cond_v1_CB_nervous,289,v1,14,CSNoise,image2.bmp,6000,,,,,,,,,CSTrial,,,,,,
Class_cond_v1_CB_nervous,289,v1,15,CSMinus,image1.bmp,6500,,,,,,,,,CSTrial,,,,,,
Class_cond_v1_CB_nervous,289,v1,16,CSPlus,image2.bmp,3000,,,,,,,,,CSTrial,,,,,,
Class_cond_v1_CB_nervous,289,v1,17,CSMinus,image1.bmp,8500,,,,,,,,,CSTrial,,,,,,
Class_cond_v1_CB_nervous,289,v1,18,CSMinus,image1.bmp,1000,,,,,,,,,CSTrial,,,,,,
Class_cond_v1_CB_nervous,289,v1,19,,,,CSMinus,image1.bmp,,,,3,4247,332600,PreRating1,3,2800,335436,,,
Class_cond_v1_CB_nervous,289,v1,20,,,,CSPlus,image2.bmp,,,,5,1562,337048,PreRating1,1,2623,339709,,,
Class_cond_v1_CB_nervous,292,v1,1,,,,CSMinus,image1.bmp,5,2891,10221,,,,PreRating,,,,4,2528,12792
Class_cond_v1_CB_nervous,292,v1,2,,,,CSPlus,image2.bmp,5,1556,14403,,,,PreRating,,,,1,892,15339
Class_cond_v1_CB_nervous,292,v1,3,CSNoise,image2.bmp,5500,,,,,,,,,CSTrial,,,,,,
Class_cond_v1_CB_nervous,292,v1,4,CSNoise,image2.bmp,8500,,,,,,,,,CSTrial,,,,,,
Class_cond_v1_CB_nervous,292,v1,5,CSPlus,image2.bmp,500,,,,,,,,,CSTrial,,,,,,
Class_cond_v1_CB_nervous,292,v1,6,CSMinus,image1.bmp,1000,,,,,,,,,CSTrial,,,,,,
Class_cond_v1_CB_nervous,292,v1,7,CSMinus,image1.bmp,5000,,,,,,,,,CSTrial,,,,,,
Class_cond_v1_CB_nervous,292,v1,8,CSMinus,image1.bmp,2500,,,,,,,,,CSTrial,,,,,,
Class_cond_v1_CB_nervous,292,v1,9,CSMinus,image1.bmp,5500,,,,,,,,,CSTrial,,,,,,
Class_cond_v1_CB_nervous,292,v1,10,CSMinus,image1.bmp,6000,,,,,,,,,CSTrial,,,,,,
Class_cond_v1_CB_nervous,292,v1,11,CSNoise,image2.bmp,2500,,,,,,,,,CSTrial,,,,,,
Class_cond_v1_CB_nervous,292,v1,12,CSNoise,image2.bmp,10000,,,,,,,,,CSTrial,,,,,,
Class_cond_v1_CB_nervous,292,v1,13,CSNoise,image2.bmp,8000,,,,,,,,,CSTrial,,,,,,
Class_cond_v1_CB_nervous,292,v1,14,CSNoise,image2.bmp,6000,,,,,,,,,CSTrial,,,,,,
Class_cond_v1_CB_nervous,292,v1,15,CSMinus,image1.bmp,6500,,,,,,,,,CSTrial,,,,,,
Class_cond_v1_CB_nervous,292,v1,16,CSPlus,image2.bmp,3000,,,,,,,,,CSTrial,,,,,,
Class_cond_v1_CB_nervous,292,v1,17,CSMinus,image1.bmp,8500,,,,,,,,,CSTrial,,,,,,
Class_cond_v1_CB_nervous,292,v1,18,CSMinus,image1.bmp,1000,,,,,,,,,CSTrial,,,,,,
Class_cond_v1_CB_nervous,292,v1,19,,,,CSMinus,image1.bmp,,,,5,2074,300088,PreRating1,2,4153,304284,,,
Class_cond_v1_CB_nervous,292,v1,20,,,,CSPlus,image2.bmp,,,,5,2071,306401,PreRating1,4,2365,308812,,,
Class_cond_v1_CB_nervous,305,v1,1,,,,CSPlus,image2.bmp,5,4031,17633,,,,PreRating,,,,5,3196,20865
Class_cond_v1_CB_nervous,305,v1,2,,,,CSMinus,image1.bmp,5,1921,22856,,,,PreRating,,,,2,5551,28453
Class_cond_v1_CB_nervous,305,v1,3,CSNoise,image2.bmp,5500,,,,,,,,,CSTrial,,,,,,
Class_cond_v1_CB_nervous,305,v1,4,CSNoise,image2.bmp,8500,,,,,,,,,CSTrial,,,,,,
Class_cond_v1_CB_nervous,305,v1,5,CSPlus,image2.bmp,500,,,,,,,,,CSTrial,,,,,,
Class_cond_v1_CB_nervous,305,v1,6,CSMinus,image1.bmp,1000,,,,,,,,,CSTrial,,,,,,
Class_cond_v1_CB_nervous,305,v1,7,CSMinus,image1.bmp,5000,,,,,,,,,CSTrial,,,,,,
Class_cond_v1_CB_nervous,305,v1,8,CSMinus,image1.bmp,2500,,,,,,,,,CSTrial,,,,,,
Class_cond_v1_CB_nervous,305,v1,9,CSMinus,image1.bmp,5500,,,,,,,,,CSTrial,,,,,,
Class_cond_v1_CB_nervous,305,v1,10,CSMinus,image1.bmp,6000,,,,,,,,,CSTrial,,,,,,
Class_cond_v1_CB_nervous,305,v1,11,CSNoise,image2.bmp,2500,,,,,,,,,CSTrial,,,,,,
Class_cond_v1_CB_nervous,305,v1,12,CSNoise,image2.bmp,10000,,,,,,,,,CSTrial,,,,,,
Class_cond_v1_CB_nervous,305,v1,13,CSNoise,image2.bmp,8000,,,,,,,,,CSTrial,,,,,,
Class_cond_v1_CB_nervous,305,v1,14,CSNoise,image2.bmp,6000,,,,,,,,,CSTrial,,,,,,
Class_cond_v1_CB_nervous,305,v1,15,CSMinus,image1.bmp,6500,,,,,,,,,CSTrial,,,,,,
Class_cond_v1_CB_nervous,305,v1,16,CSPlus,image2.bmp,3000,,,,,,,,,CSTrial,,,,,,
Class_cond_v1_CB_nervous,305,v1,17,CSMinus,image1.bmp,8500,,,,,,,,,CSTrial,,,,,,
Class_cond_v1_CB_nervous,305,v1,18,CSMinus,image1.bmp,1000,,,,,,,,,CSTrial,,,,,,
Class_cond_v1_CB_nervous,305,v1,19,,,,CSPlus,image2.bmp,,,,5,5740,313379,PreRating1,1,2816,316238,,,
Class_cond_v1_CB_nervous,305,v1,20,,,,CSMinus,image1.bmp,,,,5,3098,319386,PreRating1,1,1780,321202,,,
Class_cond_v1_CB_nervous,311,v1,1,,,,CSPlus,image2.bmp,2,12,10196,,,,PreRating,,,,1,3024,13258
Class_cond_v1_CB_nervous,311,v1,2,,,,CSMinus,image1.bmp,3,3219,16536,,,,PreRating,,,,1,1034,17618
Class_cond_v1_CB_nervous,311,v1,3,CSNoise,image2.bmp,5500,,,,,,,,,CSTrial,,,,,,
Class_cond_v1_CB_nervous,311,v1,4,CSNoise,image2.bmp,8500,,,,,,,,,CSTrial,,,,,,
Class_cond_v1_CB_nervous,311,v1,5,CSPlus,image2.bmp,500,,,,,,,,,CSTrial,,,,,,
Class_cond_v1_CB_nervous,311,v1,6,CSMinus,image1.bmp,1000,,,,,,,,,CSTrial,,,,,,
Class_cond_v1_CB_nervous,311,v1,7,CSMinus,image1.bmp,5000,,,,,,,,,CSTrial,,,,,,
Class_cond_v1_CB_nervous,311,v1,8,CSMinus,image1.bmp,2500,,,,,,,,,CSTrial,,,,,,
Class_cond_v1_CB_nervous,311,v1,9,CSMinus,image1.bmp,5500,,,,,,,,,CSTrial,,,,,,
Class_cond_v1_CB_nervous,311,v1,10,CSMinus,image1.bmp,6000,,,,,,,,,CSTrial,,,,,,
Class_cond_v1_CB_nervous,311,v1,11,CSNoise,image2.bmp,2500,,,,,,,,,CSTrial,,,,,,
Class_cond_v1_CB_nervous,311,v1,12,CSNoise,image2.bmp,10000,,,,,,,,,CSTrial,,,,,,
Class_cond_v1_CB_nervous,311,v1,13,CSNoise,image2.bmp,8000,,,,,,,,,CSTrial,,,,,,
Class_cond_v1_CB_nervous,311,v1,14,CSNoise,image2.bmp,6000,,,,,,,,,CSTrial,,,,,,
Class_cond_v1_CB_nervous,311,v1,15,CSMinus,image1.bmp,6500,,,,,,,,,CSTrial,,,,,,
Class_cond_v1_CB_nervous,311,v1,16,CSPlus,image2.bmp,3000,,,,,,,,,CSTrial,,,,,,
Class_cond_v1_CB_nervous,311,v1,17,CSMinus,image1.bmp,8500,,,,,,,,,CSTrial,,,,,,
Class_cond_v1_CB_nervous,311,v1,18,CSMinus,image1.bmp,1000,,,,,,,,,CSTrial,,,,,,
Class_cond_v1_CB_nervous,311,v1,19,,,,CSPlus,image2.bmp,,,,3,3170,297724,PreRating1,1,902,298673,,,
Class_cond_v1_CB_nervous,311,v1,20,,,,CSMinus,image1.bmp,,,,3,1082,299803,PreRating1,1,519,300373,,,
Class_cond_v1_CB_nervous,329,v1,1,,,,CSMinus,image1.bmp,5,20625,29292,,,,PreRating,,,,2,4680,34013
Class_cond_v1_CB_nervous,329,v1,2,,,,CSPlus,image2.bmp,4,3269,37368,,,,PreRating,,,,3,2161,39577
Class_cond_v1_CB_nervous,329,v1,3,CSNoise,image2.bmp,5500,,,,,,,,,CSTrial,,,,,,
Class_cond_v1_CB_nervous,329,v1,4,CSNoise,image2.bmp,8500,,,,,,,,,CSTrial,,,,,,
Class_cond_v1_CB_nervous,329,v1,5,CSPlus,image2.bmp,500,,,,,,,,,CSTrial,,,,,,
Class_cond_v1_CB_nervous,329,v1,6,CSMinus,image1.bmp,1000,,,,,,,,,CSTrial,,,,,,
Class_cond_v1_CB_nervous,329,v1,7,CSMinus,image1.bmp,5000,,,,,,,,,CSTrial,,,,,,
Class_cond_v1_CB_nervous,329,v1,8,CSMinus,image1.bmp,2500,,,,,,,,,CSTrial,,,,,,
Class_cond_v1_CB_nervous,329,v1,9,CSMinus,image1.bmp,5500,,,,,,,,,CSTrial,,,,,,
Class_cond_v1_CB_nervous,329,v1,10,CSMinus,image1.bmp,6000,,,,,,,,,CSTrial,,,,,,
Class_cond_v1_CB_nervous,329,v1,11,CSNoise,image2.bmp,2500,,,,,,,,,CSTrial,,,,,,
Class_cond_v1_CB_nervous,329,v1,12,CSNoise,image2.bmp,10000,,,,,,,,,CSTrial,,,,,,
Class_cond_v1_CB_nervous,329,v1,13,CSNoise,image2.bmp,8000,,,,,,,,,CSTrial,,,,,,
Class_cond_v1_CB_nervous,329,v1,14,CSNoise,image2.bmp,6000,,,,,,,,,CSTrial,,,,,,
Class_cond_v1_CB_nervous,329,v1,15,CSMinus,image1.bmp,6500,,,,,,,,,CSTrial,,,,,,
Class_cond_v1_CB_nervous,329,v1,16,CSPlus,image2.bmp,3000,,,,,,,,,CSTrial,,,,,,
Class_cond_v1_CB_nervous,329,v1,17,CSMinus,image1.bmp,8500,,,,,,,,,CSTrial,,,,,,
Class_cond_v1_CB_nervous,329,v1,18,CSMinus,image1.bmp,1000,,,,,,,,,CSTrial,,,,,,
Class_cond_v1_CB_nervous,329,v1,19,,,,CSMinus,image1.bmp,,,,5,8079,329279,PreRating1,2,4204,333521,,,
Class_cond_v1_CB_nervous,329,v1,20,,,,CSPlus,image2.bmp,,,,4,2429,335995,PreRating1,1,1771,337804,,,
Class_cond_v1_CB_nervous,334,v1,1,,,,CSPlus,image2.bmp,5,3934,11306,,,,PreRating,,,,1,2470,13825
Class_cond_v1_CB_nervous,334,v1,2,,,,CSMinus,image1.bmp,3,4017,17955,,,,PreRating,,,,1,3287,21292
Class_cond_v1_CB_nervous,334,v1,3,CSNoise,image2.bmp,5500,,,,,,,,,CSTrial,,,,,,
Class_cond_v1_CB_nervous,334,v1,4,CSNoise,image2.bmp,8500,,,,,,,,,CSTrial,,,,,,
Class_cond_v1_CB_nervous,334,v1,5,CSPlus,image2.bmp,500,,,,,,,,,CSTrial,,,,,,
Class_cond_v1_CB_nervous,334,v1,6,CSMinus,image1.bmp,1000,,,,,,,,,CSTrial,,,,,,
Class_cond_v1_CB_nervous,334,v1,7,CSMinus,image1.bmp,5000,,,,,,,,,CSTrial,,,,,,
Class_cond_v1_CB_nervous,334,v1,8,CSMinus,image1.bmp,2500,,,,,,,,,CSTrial,,,,,,
Class_cond_v1_CB_nervous,334,v1,9,CSMinus,image1.bmp,5500,,,,,,,,,CSTrial,,,,,,
Class_cond_v1_CB_nervous,334,v1,10,CSMinus,image1.bmp,6000,,,,,,,,,CSTrial,,,,,,
Class_cond_v1_CB_nervous,334,v1,11,CSNoise,image2.bmp,2500,,,,,,,,,CSTrial,,,,,,
Class_cond_v1_CB_nervous,334,v1,12,CSNoise,image2.bmp,10000,,,,,,,,,CSTrial,,,,,,
Class_cond_v1_CB_nervous,334,v1,13,CSNoise,image2.bmp,8000,,,,,,,,,CSTrial,,,,,,
Class_cond_v1_CB_nervous,334,v1,14,CSNoise,image2.bmp,6000,,,,,,,,,CSTrial,,,,,,
Class_cond_v1_CB_nervous,334,v1,15,CSMinus,image1.bmp,6500,,,,,,,,,CSTrial,,,,,,
Class_cond_v1_CB_nervous,334,v1,16,CSPlus,image2.bmp,3000,,,,,,,,,CSTrial,,,,,,
Class_cond_v1_CB_nervous,334,v1,17,CSMinus,image1.bmp,8500,,,,,,,,,CSTrial,,,,,,
Class_cond_v1_CB_nervous,334,v1,18,CSMinus,image1.bmp,1000,,,,,,,,,CSTrial,,,,,,
Class_cond_v1_CB_nervous,334,v1,19,,,,CSMinus,image1.bmp,,,,3,7780,311806,PreRating1,1,2543,314385,,,
Class_cond_v1_CB_nervous,334,v1,20,,,,CSPlus,image2.bmp,,,,4,2800,317242,PreRating1,5,2744,320036,,,
Class_cond_v1_CB_nervous,188,v1,1,,,,CSPlus,image2.bmp,4,3654,10744,,,,PreRating,,,,1,3273,14063
Class_cond_v1_CB_nervous,188,v1,2,,,,CSMinus,image1.bmp,4,3084,17191,,,,PreRating,,,,1,1131,18371
Class_cond_v1_CB_nervous,188,v1,3,CSNoise,image2.bmp,5500,,,,,,,,,CSTrial,,,,,,
Class_cond_v1_CB_nervous,188,v1,4,CSNoise,image2.bmp,8500,,,,,,,,,CSTrial,,,,,,
Class_cond_v1_CB_nervous,188,v1,5,CSPlus,image2.bmp,500,,,,,,,,,CSTrial,,,,,,
Class_cond_v1_CB_nervous,188,v1,6,CSMinus,image1.bmp,1000,,,,,,,,,CSTrial,,,,,,
Class_cond_v1_CB_nervous,188,v1,7,CSMinus,image1.bmp,5000,,,,,,,,,CSTrial,,,,,,
Class_cond_v1_CB_nervous,188,v1,8,CSMinus,image1.bmp,2500,,,,,,,,,CSTrial,,,,,,
Class_cond_v1_CB_nervous,188,v1,9,CSMinus,image1.bmp,5500,,,,,,,,,CSTrial,,,,,,
Class_cond_v1_CB_nervous,188,v1,10,CSMinus,image1.bmp,6000,,,,,,,,,CSTrial,,,,,,
Class_cond_v1_CB_nervous,188,v1,11,CSNoise,image2.bmp,2500,,,,,,,,,CSTrial,,,,,,
Class_cond_v1_CB_nervous,188,v1,12,CSNoise,image2.bmp,10000,,,,,,,,,CSTrial,,,,,,
Class_cond_v1_CB_nervous,188,v1,13,CSNoise,image2.bmp,8000,,,,,,,,,CSTrial,,,,,,
Class_cond_v1_CB_nervous,188,v1,14,CSNoise,image2.bmp,6000,,,,,,,,,CSTrial,,,,,,
Class_cond_v1_CB_nervous,188,v1,15,CSMinus,image1.bmp,6500,,,,,,,,,CSTrial,,,,,,
Class_cond_v1_CB_nervous,188,v1,16,CSPlus,image2.bmp,3000,,,,,,,,,CSTrial,,,,,,
Class_cond_v1_CB_nervous,188,v1,17,CSMinus,image1.bmp,8500,,,,,,,,,CSTrial,,,,,,
Class_cond_v1_CB_nervous,188,v1,18,CSMinus,image1.bmp,1000,,,,,,,,,CSTrial,,,,,,
Class_cond_v1_CB_nervous,188,v1,19,,,,CSPlus,image2.bmp,,,,3,5261,296169,PreRating1,3,4136,300344,,,
Class_cond_v1_CB_nervous,188,v1,20,,,,CSMinus,image1.bmp,,,,5,3181,303572,PreRating1,1,2680,306288,,,
Class_cond_v1_CB_nervous,245,v1,1,,,,CSMinus,image1.bmp,4,7883,26986,,,,PreRating,,,,2,7567,34603
Class_cond_v1_CB_nervous,245,v1,2,,,,CSPlus,image2.bmp,3,6988,41657,,,,PreRating,,,,1,3651,45353
Class_cond_v1_CB_nervous,245,v1,3,CSNoise,image2.bmp,5500,,,,,,,,,CSTrial,,,,,,
Class_cond_v1_CB_nervous,245,v1,4,CSNoise,image2.bmp,8500,,,,,,,,,CSTrial,,,,,,
Class_cond_v1_CB_nervous,245,v1,5,CSPlus,image2.bmp,500,,,,,,,,,CSTrial,,,,,,
Class_cond_v1_CB_nervous,245,v1,6,CSMinus,image1.bmp,1000,,,,,,,,,CSTrial,,,,,,
Class_cond_v1_CB_nervous,245,v1,7,CSMinus,image1.bmp,5000,,,,,,,,,CSTrial,,,,,,
Class_cond_v1_CB_nervous,245,v1,8,CSMinus,image1.bmp,2500,,,,,,,,,CSTrial,,,,,,
Class_cond_v1_CB_nervous,245,v1,9,CSMinus,image1.bmp,5500,,,,,,,,,CSTrial,,,,,,
Class_cond_v1_CB_nervous,245,v1,10,CSMinus,image1.bmp,6000,,,,,,,,,CSTrial,,,,,,
Class_cond_v1_CB_nervous,245,v1,11,CSNoise,image2.bmp,2500,,,,,,,,,CSTrial,,,,,,
Class_cond_v1_CB_nervous,245,v1,12,CSNoise,image2.bmp,10000,,,,,,,,,CSTrial,,,,,,
Class_cond_v1_CB_nervous,245,v1,13,CSNoise,image2.bmp,8000,,,,,,,,,CSTrial,,,,,,
Class_cond_v1_CB_nervous,245,v1,14,CSNoise,image2.bmp,6000,,,,,,,,,CSTrial,,,,,,
Class_cond_v1_CB_nervous,245,v1,15,CSMinus,image1.bmp,6500,,,,,,,,,CSTrial,,,,,,
Class_cond_v1_CB_nervous,245,v1,16,CSPlus,image2.bmp,3000,,,,,,,,,CSTrial,,,,,,
Class_cond_v1_CB_nervous,245,v1,17,CSMinus,image1.bmp,8500,,,,,,,,,CSTrial,,,,,,
Class_cond_v1_CB_nervous,245,v1,18,CSMinus,image1.bmp,1000,,,,,,,,,CSTrial,,,,,,
Class_cond_v1_CB_nervous,245,v1,19,,,,CSMinus,image1.bmp,,,,5,13339,433522,PreRating1,2,2000,435566,,,
Class_cond_v1_CB_nervous,245,v1,20,,,,CSPlus,image2.bmp,,,,2,7812,443428,PreRating1,2,3271,446736,,,
Class_cond_v1_REG,107,v1,1,,,,CSMinus,image2.bmp,5,3677,28692,,,,PreRating,,,,,,
Class_cond_v1_REG,107,v1,2,,,,CSPlus,image1.bmp,5,1760,30525,,,,PreRating,,,,,,
Class_cond_v1_REG,107,v1,3,CSNoise,image1.bmp,5500,,,,,,,,,CSTrial,,,,,,
Class_cond_v1_REG,107,v1,4,CSNoise,image1.bmp,8500,,,,,,,,,CSTrial,,,,,,
Class_cond_v1_REG,107,v1,5,CSPlus,image1.bmp,500,,,,,,,,,CSTrial,,,,,,
Class_cond_v1_REG,107,v1,6,CSMinus,image2.bmp,1000,,,,,,,,,CSTrial,,,,,,
Class_cond_v1_REG,107,v1,7,CSMinus,image2.bmp,5000,,,,,,,,,CSTrial,,,,,,
Class_cond_v1_REG,107,v1,8,CSMinus,image2.bmp,2500,,,,,,,,,CSTrial,,,,,,
Class_cond_v1_REG,107,v1,9,CSMinus,image2.bmp,5500,,,,,,,,,CSTrial,,,,,,
Class_cond_v1_REG,107,v1,10,CSMinus,image2.bmp,6000,,,,,,,,,CSTrial,,,,,,
Class_cond_v1_REG,107,v1,11,CSNoise,image1.bmp,2500,,,,,,,,,CSTrial,,,,,,
Class_cond_v1_REG,107,v1,12,CSNoise,image1.bmp,10000,,,,,,,,,CSTrial,,,,,,
Class_cond_v1_REG,107,v1,13,CSNoise,image1.bmp,8000,,,,,,,,,CSTrial,,,,,,
Class_cond_v1_REG,107,v1,14,CSNoise,image1.bmp,6000,,,,,,,,,CSTrial,,,,,,
Class_cond_v1_REG,107,v1,15,CSMinus,image2.bmp,6500,,,,,,,,,CSTrial,,,,,,
Class_cond_v1_REG,107,v1,16,CSPlus,image1.bmp,3000,,,,,,,,,CSTrial,,,,,,
Class_cond_v1_REG,107,v1,17,CSMinus,image2.bmp,8500,,,,,,,,,CSTrial,,,,,,
Class_cond_v1_REG,107,v1,18,CSMinus,image2.bmp,1000,,,,,,,,,CSTrial,,,,,,
Class_cond_v1_REG,107,v1,19,,,,CSMinus,image2.bmp,,,,5,10142,339358,PreRating1,,,,,,
Class_cond_v1_REG,107,v1,20,,,,CSPlus,image1.bmp,,,,4,4337,343752,PreRating1,,,,,,
Class_cond_v1_REG,118,v1,1,,,,CSMinus,image4.bmp,4,3868,98279,,,,PreRating,,,,,,
Class_cond_v1_REG,118,v1,2,,,,CSPlus,image3.bmp,2,2422,100812,,,,PreRating,,,,,,
Class_cond_v1_REG,118,v1,3,CSNoise,image1.bmp,5500,,,,,,,,,CSTrial,,,,,,
Class_cond_v1_REG,118,v1,4,CSNoise,image1.bmp,8500,,,,,,,,,CSTrial,,,,,,
Class_cond_v1_REG,118,v1,5,CSPlus,image1.bmp,500,,,,,,,,,CSTrial,,,,,,
Class_cond_v1_REG,118,v1,6,CSMinus,image2.bmp,1000,,,,,,,,,CSTrial,,,,,,
Class_cond_v1_REG,118,v1,7,CSMinus,image2.bmp,5000,,,,,,,,,CSTrial,,,,,,
Class_cond_v1_REG,118,v1,8,CSMinus,image2.bmp,2500,,,,,,,,,CSTrial,,,,,,
Class_cond_v1_REG,118,v1,9,CSMinus,image2.bmp,5500,,,,,,,,,CSTrial,,,,,,
Class_cond_v1_REG,118,v1,10,CSMinus,image2.bmp,6000,,,,,,,,,CSTrial,,,,,,
Class_cond_v1_REG,118,v1,11,CSNoise,image1.bmp,2500,,,,,,,,,CSTrial,,,,,,
Class_cond_v1_REG,118,v1,12,CSNoise,image1.bmp,10000,,,,,,,,,CSTrial,,,,,,
Class_cond_v1_REG,118,v1,13,CSNoise,image1.bmp,8000,,,,,,,,,CSTrial,,,,,,
Class_cond_v1_REG,118,v1,14,CSNoise,image1.bmp,6000,,,,,,,,,CSTrial,,,,,,
Class_cond_v1_REG,118,v1,15,CSMinus,image2.bmp,6500,,,,,,,,,CSTrial,,,,,,
Class_cond_v1_REG,118,v1,16,CSPlus,image1.bmp,3000,,,,,,,,,CSTrial,,,,,,
Class_cond_v1_REG,118,v1,17,CSMinus,image2.bmp,8500,,,,,,,,,CSTrial,,,,,,
Class_cond_v1_REG,118,v1,18,CSMinus,image2.bmp,1000,,,,,,,,,CSTrial,,,,,,
Class_cond_v1_REG,118,v1,19,,,,CSPlus,image1.bmp,,,,4,1840,382632,PreRating1,,,,,,
Class_cond_v1_REG,118,v1,20,,,,CSMinus,image2.bmp,,,,2,2757,385422,PreRating1,,,,,,
Class_cond_v1_REG,133,v1,1,,,,CSPlus,image1.bmp,3,4681,27938,,,,PreRating,,,,,,
Class_cond_v1_REG,133,v1,2,,,,CSMinus,image2.bmp,2,2434,30441,,,,PreRating,,,,,,
Class_cond_v1_REG,133,v1,3,CSNoise,image1.bmp,5500,,,,,,,,,CSTrial,,,,,,
Class_cond_v1_REG,133,v1,4,CSNoise,image1.bmp,8500,,,,,,,,,CSTrial,,,,,,
Class_cond_v1_REG,133,v1,5,CSPlus,image1.bmp,500,,,,,,,,,CSTrial,,,,,,
Class_cond_v1_REG,133,v1,6,CSMinus,image2.bmp,1000,,,,,,,,,CSTrial,,,,,,
Class_cond_v1_REG,133,v1,7,CSMinus,image2.bmp,5000,,,,,,,,,CSTrial,,,,,,
Class_cond_v1_REG,133,v1,8,CSMinus,image2.bmp,2500,,,,,,,,,CSTrial,,,,,,
Class_cond_v1_REG,133,v1,9,CSMinus,image2.bmp,5500,,,,,,,,,CSTrial,,,,,,
Class_cond_v1_REG,133,v1,10,CSMinus,image2.bmp,6000,,,,,,,,,CSTrial,,,,,,
Class_cond_v1_REG,133,v1,11,CSNoise,image1.bmp,2500,,,,,,,,,CSTrial,,,,,,
Class_cond_v1_REG,133,v1,12,CSNoise,image1.bmp,10000,,,,,,,,,CSTrial,,,,,,
Class_cond_v1_REG,133,v1,13,CSNoise,image1.bmp,8000,,,,,,,,,CSTrial,,,,,,
Class_cond_v1_REG,133,v1,14,CSNoise,image1.bmp,6000,,,,,,,,,CSTrial,,,,,,
Class_cond_v1_REG,133,v1,15,CSMinus,image2.bmp,6500,,,,,,,,,CSTrial,,,,,,
Class_cond_v1_REG,133,v1,16,CSPlus,image1.bmp,3000,,,,,,,,,CSTrial,,,,,,
Class_cond_v1_REG,133,v1,17,CSMinus,image2.bmp,8500,,,,,,,,,CSTrial,,,,,,
Class_cond_v1_REG,133,v1,18,CSMinus,image2.bmp,1000,,,,,,,,,CSTrial,,,,,,
Class_cond_v1_REG,133,v1,19,,,,CSPlus,image1.bmp,,,,3,2552,348825,PreRating1,,,,,,
Class_cond_v1_REG,133,v1,20,,,,CSMinus,image2.bmp,,,,2,998,349871,PreRating1,,,,,,
Class_cond_v1_CB,104,v1,1,,,,CSMinus,image1.bmp,4,5313,33139,,,,PreRating,,,,,,
Class_cond_v1_CB,104,v1,2,,,,CSPlus,image2.bmp,3,3610,36819,,,,PreRating,,,,,,
Class_cond_v1_CB,104,v1,3,CSNoise,image2.bmp,5500,,,,,,,,,CSTrial,,,,,,
Class_cond_v1_CB,104,v1,4,CSNoise,image2.bmp,8500,,,,,,,,,CSTrial,,,,,,
Class_cond_v1_CB,104,v1,5,CSPlus,image2.bmp,500,,,,,,,,,CSTrial,,,,,,
Class_cond_v1_CB,104,v1,6,CSMinus,image1.bmp,1000,,,,,,,,,CSTrial,,,,,,
Class_cond_v1_CB,104,v1,7,CSMinus,image1.bmp,5000,,,,,,,,,CSTrial,,,,,,
Class_cond_v1_CB,104,v1,8,CSMinus,image1.bmp,2500,,,,,,,,,CSTrial,,,,,,
Class_cond_v1_CB,104,v1,9,CSMinus,image1.bmp,5500,,,,,,,,,CSTrial,,,,,,
Class_cond_v1_CB,104,v1,10,CSMinus,image1.bmp,6000,,,,,,,,,CSTrial,,,,,,
Class_cond_v1_CB,104,v1,11,CSNoise,image2.bmp,2500,,,,,,,,,CSTrial,,,,,,
Class_cond_v1_CB,104,v1,12,CSNoise,image2.bmp,10000,,,,,,,,,CSTrial,,,,,,
Class_cond_v1_CB,104,v1,13,CSNoise,image2.bmp,8000,,,,,,,,,CSTrial,,,,,,
Class_cond_v1_CB,104,v1,14,CSNoise,image2.bmp,6000,,,,,,,,,CSTrial,,,,,,
Class_cond_v1_CB,104,v1,15,CSMinus,image1.bmp,6500,,,,,,,,,CSTrial,,,,,,
Class_cond_v1_CB,104,v1,16,CSPlus,image2.bmp,3000,,,,,,,,,CSTrial,,,,,,
Class_cond_v1_CB,104,v1,17,CSMinus,image1.bmp,8500,,,,,,,,,CSTrial,,,,,,
Class_cond_v1_CB,104,v1,18,CSMinus,image1.bmp,1000,,,,,,,,,CSTrial,,,,,,
Class_cond_v1_CB,104,v1,19,,,,CSMinus,image1.bmp,,,,4,7705,343681,PreRating1,,,,,,
Class_cond_v1_CB,104,v1,20,,,,CSPlus,image2.bmp,,,,3,3060,346786,PreRating1,,,,,,
Class_cond_v1_CB,153,v1,1,,,,CSPlus,image2.bmp,4,3773,50423,,,,PreRating,,,,,,
Class_cond_v1_CB,153,v1,2,,,,CSMinus,image1.bmp,4,3151,53634,,,,PreRating,,,,,,
Class_cond_v1_CB,153,v1,3,CSNoise,image2.bmp,5500,,,,,,,,,CSTrial,,,,,,
Class_cond_v1_CB,153,v1,4,CSNoise,image2.bmp,8500,,,,,,,,,CSTrial,,,,,,
Class_cond_v1_CB,153,v1,5,CSPlus,image2.bmp,500,,,,,,,,,CSTrial,,,,,,
Class_cond_v1_CB,153,v1,6,CSMinus,image1.bmp,1000,,,,,,,,,CSTrial,,,,,,
Class_cond_v1_CB,153,v1,7,CSMinus,image1.bmp,5000,,,,,,,,,CSTrial,,,,,,
Class_cond_v1_CB,153,v1,8,CSMinus,image1.bmp,2500,,,,,,,,,CSTrial,,,,,,
Class_cond_v1_CB,153,v1,9,CSMinus,image1.bmp,5500,,,,,,,,,CSTrial,,,,,,
Class_cond_v1_CB,153,v1,10,CSMinus,image1.bmp,6000,,,,,,,,,CSTrial,,,,,,
Class_cond_v1_CB,153,v1,11,CSNoise,image2.bmp,2500,,,,,,,,,CSTrial,,,,,,
Class_cond_v1_CB,153,v1,12,CSNoise,image2.bmp,10000,,,,,,,,,CSTrial,,,,,,
Class_cond_v1_CB,153,v1,13,CSNoise,image2.bmp,8000,,,,,,,,,CSTrial,,,,,,
Class_cond_v1_CB,153,v1,14,CSNoise,image2.bmp,6000,,,,,,,,,CSTrial,,,,,,
Class_cond_v1_CB,153,v1,15,CSMinus,image1.bmp,6500,,,,,,,,,CSTrial,,,,,,
Class_cond_v1_CB,153,v1,16,CSPlus,image2.bmp,3000,,,,,,,,,CSTrial,,,,,,
Class_cond_v1_CB,153,v1,17,CSMinus,image1.bmp,8500,,,,,,,,,CSTrial,,,,,,
Class_cond_v1_CB,153,v1,18,CSMinus,image1.bmp,1000,,,,,,,,,CSTrial,,,,,,
Class_cond_v1_CB,153,v1,19,,,,CSPlus,image2.bmp,,,,1,1871,361588,PreRating1,,,,,,
Class_cond_v1_CB,153,v1,20,,,,CSMinus,image1.bmp,,,,5,1522,363172,PreRating1,,,,,,
Class_cond_v2_CB_nervous,110,v2,1,,,,CSPlus,image4.bmp,5,34,15993,,,,PreRating,,,,1,12216,28259
Class_cond_v2_CB_nervous,110,v2,2,,,,CSMinus,image3.bmp,3,5102,33411,,,,PreRating,,,,1,3969,37427
Class_cond_v2_CB_nervous,110,v2,3,CSNoise,image4.bmp,6000,,,,,,,,,CSTrial,,,,,,
Class_cond_v2_CB_nervous,110,v2,4,CSNoise,image4.bmp,7000,,,,,,,,,CSTrial,,,,,,
Class_cond_v2_CB_nervous,110,v2,5,CSNoise,image4.bmp,7000,,,,,,,,,CSTrial,,,,,,
Class_cond_v2_CB_nervous,110,v2,6,CSMinus,image3.bmp,6000,,,,,,,,,CSTrial,,,,,,
Class_cond_v2_CB_nervous,110,v2,7,CSNoise,image4.bmp,1000,,,,,,,,,CSTrial,,,,,,
Class_cond_v2_CB_nervous,110,v2,8,CSMinus,image3.bmp,6000,,,,,,,,,CSTrial,,,,,,
Class_cond_v2_CB_nervous,110,v2,9,CSPlus,image4.bmp,500,,,,,,,,,CSTrial,,,,,,
Class_cond_v2_CB_nervous,110,v2,10,CSMinus,image3.bmp,4000,,,,,,,,,CSTrial,,,,,,
Class_cond_v2_CB_nervous,110,v2,11,CSNoise,image4.bmp,6000,,,,,,,,,CSTrial,,,,,,
Class_cond_v2_CB_nervous,110,v2,12,CSMinus,image3.bmp,2500,,,,,,,,,CSTrial,,,,,,
Class_cond_v2_CB_nervous,110,v2,13,CSMinus,image3.bmp,7000,,,,,,,,,CSTrial,,,,,,
Class_cond_v2_CB_nervous,110,v2,14,CSNoise,image4.bmp,4500,,,,,,,,,CSTrial,,,,,,
Class_cond_v2_CB_nervous,110,v2,15,CSMinus,image3.bmp,2000,,,,,,,,,CSTrial,,,,,,
Class_cond_v2_CB_nervous,110,v2,16,CSMinus,image3.bmp,12000,,,,,,,,,CSTrial,,,,,,
Class_cond_v2_CB_nervous,110,v2,17,CSPlus,image4.bmp,7500,,,,,,,,,CSTrial,,,,,,
Class_cond_v2_CB_nervous,110,v2,18,CSMinus,image3.bmp,1000,,,,,,,,,CSTrial,,,,,,
Class_cond_v2_CB_nervous,110,v2,19,,,,CSPlus,image4.bmp,,,,1,7895,318725,PreRating1,3,3614,322377,,,
Class_cond_v2_CB_nervous,110,v2,20,,,,CSMinus,image3.bmp,,,,4,2879,325308,PreRating1,2,3403,328749,,,
Class_cond_v2_CB_nervous,128,v2,1,,,,CSMinus,image3.bmp,3,51,20277,,,,PreRating,,,,4,9725,30051
Class_cond_v2_CB_nervous,128,v2,2,,,,CSPlus,image4.bmp,5,5099,35207,,,,PreRating,,,,5,4862,40120
Class_cond_v2_CB_nervous,128,v2,3,CSNoise,image4.bmp,6000,,,,,,,,,CSTrial,,,,,,
Class_cond_v2_CB_nervous,128,v2,4,CSNoise,image4.bmp,7000,,,,,,,,,CSTrial,,,,,,
Class_cond_v2_CB_nervous,128,v2,5,CSNoise,image4.bmp,7000,,,,,,,,,CSTrial,,,,,,
Class_cond_v2_CB_nervous,128,v2,6,CSMinus,image3.bmp,6000,,,,,,,,,CSTrial,,,,,,
Class_cond_v2_CB_nervous,128,v2,7,CSNoise,image4.bmp,1000,,,,,,,,,CSTrial,,,,,,
Class_cond_v2_CB_nervous,128,v2,8,CSMinus,image3.bmp,6000,,,,,,,,,CSTrial,,,,,,
Class_cond_v2_CB_nervous,128,v2,9,CSPlus,image4.bmp,500,,,,,,,,,CSTrial,,,,,,
Class_cond_v2_CB_nervous,128,v2,10,CSMinus,image3.bmp,4000,,,,,,,,,CSTrial,,,,,,
Class_cond_v2_CB_nervous,128,v2,11,CSNoise,image4.bmp,6000,,,,,,,,,CSTrial,,,,,,
Class_cond_v2_CB_nervous,128,v2,12,CSMinus,image3.bmp,2500,,,,,,,,,CSTrial,,,,,,
Class_cond_v2_CB_nervous,128,v2,13,CSMinus,image3.bmp,7000,,,,,,,,,CSTrial,,,,,,
Class_cond_v2_CB_nervous,128,v2,14,CSNoise,image4.bmp,4500,,,,,,,,,CSTrial,,,,,,
Class_cond_v2_CB_nervous,128,v2,15,CSMinus,image3.bmp,2000,,,,,,,,,CSTrial,,,,,,
Class_cond_v2_CB_nervous,128,v2,16,CSMinus,image3.bmp,12000,,,,,,,,,CSTrial,,,,,,
Class_cond_v2_CB_nervous,128,v2,17,CSPlus,image4.bmp,7500,,,,,,,,,CSTrial,,,,,,
Class_cond_v2_CB_nervous,128,v2,18,CSMinus,image3.bmp,1000,,,,,,,,,CSTrial,,,,,,
Class_cond_v2_CB_nervous,128,v2,19,,,,CSPlus,image4.bmp,,,,2,6893,329970,PreRating1,1,5303,335313,,,
Class_cond_v2_CB_nervous,128,v2,20,,,,CSMinus,image3.bmp,,,,5,3565,338958,PreRating1,1,2550,341560,,,
Class_cond_v2_CB_nervous,140,v2,1,,,,CSMinus,image3.bmp,3,12391,25042,,,,PreRating,,,,2,5034,30118
Class_cond_v2_CB_nervous,140,v2,2,,,,CSPlus,image4.bmp,2,2974,33158,,,,PreRating,,,,1,2107,35308
Class_cond_v2_CB_nervous,140,v2,3,CSNoise,image4.bmp,6000,,,,,,,,,CSTrial,,,,,,
Class_cond_v2_CB_nervous,140,v2,4,CSNoise,image4.bmp,7000,,,,,,,,,CSTrial,,,,,,
Class_cond_v2_CB_nervous,140,v2,5,CSNoise,image4.bmp,7000,,,,,,,,,CSTrial,,,,,,
Class_cond_v2_CB_nervous,140,v2,6,CSMinus,image3.bmp,6000,,,,,,,,,CSTrial,,,,,,
Class_cond_v2_CB_nervous,140,v2,7,CSNoise,image4.bmp,1000,,,,,,,,,CSTrial,,,,,,
Class_cond_v2_CB_nervous,140,v2,8,CSMinus,image3.bmp,6000,,,,,,,,,CSTrial,,,,,,
Class_cond_v2_CB_nervous,140,v2,9,CSPlus,image4.bmp,500,,,,,,,,,CSTrial,,,,,,
Class_cond_v2_CB_nervous,140,v2,10,CSMinus,image3.bmp,4000,,,,,,,,,CSTrial,,,,,,
Class_cond_v2_CB_nervous,140,v2,11,CSNoise,image4.bmp,6000,,,,,,,,,CSTrial,,,,,,
Class_cond_v2_CB_nervous,140,v2,12,CSMinus,image3.bmp,2500,,,,,,,,,CSTrial,,,,,,
Class_cond_v2_CB_nervous,140,v2,13,CSMinus,image3.bmp,7000,,,,,,,,,CSTrial,,,,,,
Class_cond_v2_CB_nervous,140,v2,14,CSNoise,image4.bmp,4500,,,,,,,,,CSTrial,,,,,,
Class_cond_v2_CB_nervous,140,v2,15,CSMinus,image3.bmp,2000,,,,,,,,,CSTrial,,,,,,
Class_cond_v2_CB_nervous,140,v2,16,CSMinus,image3.bmp,12000,,,,,,,,,CSTrial,,,,,,
Class_cond_v2_CB_nervous,140,v2,17,CSPlus,image4.bmp,7500,,,,,,,,,CSTrial,,,,,,
Class_cond_v2_CB_nervous,140,v2,18,CSMinus,image3.bmp,1000,,,,,,,,,CSTrial,,,,,,
Class_cond_v2_CB_nervous,140,v2,19,,,,CSMinus,image3.bmp,,,,4,2744,331747,PreRating1,2,2785,334572,,,
Class_cond_v2_CB_nervous,140,v2,20,,,,CSPlus,image4.bmp,,,,2,1249,335869,PreRating1,2,1399,337319,,,
Class_cond_v2_CB_nervous,179,v2,1,,,,CSMinus,image3.bmp,5,2398,11398,,,,PreRating,,,,1,1925,13375
Class_cond_v2_CB_nervous,179,v2,2,,,,CSPlus,image4.bmp,5,1695,15128,,,,PreRating,,,,1,501,15667
Class_cond_v2_CB_nervous,179,v2,3,CSNoise,image4.bmp,6000,,,,,,,,,CSTrial,,,,,,
Class_cond_v2_CB_nervous,179,v2,4,CSNoise,image4.bmp,7000,,,,,,,,,CSTrial,,,,,,
Class_cond_v2_CB_nervous,179,v2,5,CSNoise,image4.bmp,7000,,,,,,,,,CSTrial,,,,,,
Class_cond_v2_CB_nervous,179,v2,6,CSMinus,image3.bmp,6000,,,,,,,,,CSTrial,,,,,,
Class_cond_v2_CB_nervous,179,v2,7,CSNoise,image4.bmp,1000,,,,,,,,,CSTrial,,,,,,
Class_cond_v2_CB_nervous,179,v2,8,CSMinus,image3.bmp,6000,,,,,,,,,CSTrial,,,,,,
Class_cond_v2_CB_nervous,179,v2,9,CSPlus,image4.bmp,500,,,,,,,,,CSTrial,,,,,,
Class_cond_v2_CB_nervous,179,v2,10,CSMinus,image3.bmp,4000,,,,,,,,,CSTrial,,,,,,
Class_cond_v2_CB_nervous,179,v2,11,CSNoise,image4.bmp,6000,,,,,,,,,CSTrial,,,,,,
Class_cond_v2_CB_nervous,179,v2,12,CSMinus,image3.bmp,2500,,,,,,,,,CSTrial,,,,,,
Class_cond_v2_CB_nervous,179,v2,13,CSMinus,image3.bmp,7000,,,,,,,,,CSTrial,,,,,,
Class_cond_v2_CB_nervous,179,v2,14,CSNoise,image4.bmp,4500,,,,,,,,,CSTrial,,,,,,
Class_cond_v2_CB_nervous,179,v2,15,CSMinus,image3.bmp,2000,,,,,,,,,CSTrial,,,,,,
Class_cond_v2_CB_nervous,179,v2,16,CSMinus,image3.bmp,12000,,,,,,,,,CSTrial,,,,,,
Class_cond_v2_CB_nervous,179,v2,17,CSPlus,image4.bmp,7500,,,,,,,,,CSTrial,,,,,,
Class_cond_v2_CB_nervous,179,v2,18,CSMinus,image3.bmp,1000,,,,,,,,,CSTrial,,,,,,
Class_cond_v2_CB_nervous,179,v2,19,,,,CSPlus,image4.bmp,,,,5,2051,295821,PreRating1,1,689,296559,,,
Class_cond_v2_CB_nervous,179,v2,20,,,,CSMinus,image3.bmp,,,,5,638,297258,PreRating1,1,574,297877,,,
Class_cond_v2_CB_nervous,182,v2,1,,,,CSPlus,image4.bmp,5,18279,33786,,,,PreRating,,,,2,6115,39938
Class_cond_v2_CB_nervous,182,v2,2,,,,CSMinus,image3.bmp,3,7468,47458,,,,PreRating,,,,3,6240,53746
Class_cond_v2_CB_nervous,182,v2,3,CSNoise,image4.bmp,6000,,,,,,,,,CSTrial,,,,,,
Class_cond_v2_CB_nervous,182,v2,4,CSNoise,image4.bmp,7000,,,,,,,,,CSTrial,,,,,,
Class_cond_v2_CB_nervous,182,v2,5,CSNoise,image4.bmp,7000,,,,,,,,,CSTrial,,,,,,
Class_cond_v2_CB_nervous,182,v2,6,CSMinus,image3.bmp,6000,,,,,,,,,CSTrial,,,,,,
Class_cond_v2_CB_nervous,182,v2,7,CSNoise,image4.bmp,1000,,,,,,,,,CSTrial,,,,,,
Class_cond_v2_CB_nervous,182,v2,8,CSMinus,image3.bmp,6000,,,,,,,,,CSTrial,,,,,,
Class_cond_v2_CB_nervous,182,v2,9,CSPlus,image4.bmp,500,,,,,,,,,CSTrial,,,,,,
Class_cond_v2_CB_nervous,182,v2,10,CSMinus,image3.bmp,4000,,,,,,,,,CSTrial,,,,,,
Class_cond_v2_CB_nervous,182,v2,11,CSNoise,image4.bmp,6000,,,,,,,,,CSTrial,,,,,,
Class_cond_v2_CB_nervous,182,v2,12,CSMinus,image3.bmp,2500,,,,,,,,,CSTrial,,,,,,
Class_cond_v2_CB_nervous,182,v2,13,CSMinus,image3.bmp,7000,,,,,,,,,CSTrial,,,,,,
Class_cond_v2_CB_nervous,182,v2,14,CSNoise,image4.bmp,4500,,,,,,,,,CSTrial,,,,,,
Class_cond_v2_CB_nervous,182,v2,15,CSMinus,image3.bmp,2000,,,,,,,,,CSTrial,,,,,,
Class_cond_v2_CB_nervous,182,v2,16,CSMinus,image3.bmp,12000,,,,,,,,,CSTrial,,,,,,
Class_cond_v2_CB_nervous,182,v2,17,CSPlus,image4.bmp,7500,,,,,,,,,CSTrial,,,,,,
Class_cond_v2_CB_nervous,182,v2,18,CSMinus,image3.bmp,1000,,,,,,,,,CSTrial,,,,,,
Class_cond_v2_CB_nervous,182,v2,19,,,,CSPlus,image4.bmp,,,,5,9425,348617,PreRating1,2,5991,354649,,,
Class_cond_v2_CB_nervous,182,v2,20,,,,CSMinus,image3.bmp,,,,3,7556,362264,PreRating1,2,8364,370672,,,
Class_cond_v2_CB_nervous,203,v2,1,,,,CSPlus,image4.bmp,1,131,9259,,,,PreRating,,,,1,7509,16804
Class_cond_v2_CB_nervous,203,v2,2,,,,CSMinus,image3.bmp,5,2645,19523,,,,PreRating,,,,1,896,20457
Class_cond_v2_CB_nervous,203,v2,3,CSNoise,image4.bmp,6000,,,,,,,,,CSTrial,,,,,,
Class_cond_v2_CB_nervous,203,v2,4,CSNoise,image4.bmp,7000,,,,,,,,,CSTrial,,,,,,
Class_cond_v2_CB_nervous,203,v2,5,CSNoise,image4.bmp,7000,,,,,,,,,CSTrial,,,,,,
Class_cond_v2_CB_nervous,203,v2,6,CSMinus,image3.bmp,6000,,,,,,,,,CSTrial,,,,,,
Class_cond_v2_CB_nervous,203,v2,7,CSNoise,image4.bmp,1000,,,,,,,,,CSTrial,,,,,,
Class_cond_v2_CB_nervous,203,v2,8,CSMinus,image3.bmp,6000,,,,,,,,,CSTrial,,,,,,
Class_cond_v2_CB_nervous,203,v2,9,CSPlus,image4.bmp,500,,,,,,,,,CSTrial,,,,,,
Class_cond_v2_CB_nervous,203,v2,10,CSMinus,image3.bmp,4000,,,,,,,,,CSTrial,,,,,,
Class_cond_v2_CB_nervous,203,v2,11,CSNoise,image4.bmp,6000,,,,,,,,,CSTrial,,,,,,
Class_cond_v2_CB_nervous,203,v2,12,CSMinus,image3.bmp,2500,,,,,,,,,CSTrial,,,,,,
Class_cond_v2_CB_nervous,203,v2,13,CSMinus,image3.bmp,7000,,,,,,,,,CSTrial,,,,,,
Class_cond_v2_CB_nervous,203,v2,14,CSNoise,image4.bmp,4500,,,,,,,,,CSTrial,,,,,,
Class_cond_v2_CB_nervous,203,v2,15,CSMinus,image3.bmp,2000,,,,,,,,,CSTrial,,,,,,
Class_cond_v2_CB_nervous,203,v2,16,CSMinus,image3.bmp,12000,,,,,,,,,CSTrial,,,,,,
Class_cond_v2_CB_nervous,203,v2,17,CSPlus,image4.bmp,7500,,,,,,,,,CSTrial,,,,,,
Class_cond_v2_CB_nervous,203,v2,18,CSMinus,image3.bmp,1000,,,,,,,,,CSTrial,,,,,,
Class_cond_v2_CB_nervous,203,v2,19,,,,CSMinus,image3.bmp,,,,5,3802,300334,PreRating1,1,3019,303401,,,
Class_cond_v2_CB_nervous,203,v2,20,,,,CSPlus,image4.bmp,,,,1,3437,306885,PreRating1,3,4156,311088,,,
Class_cond_v2_CB_nervous,224,v2,1,,,,CSMinus,image3.bmp,1,2910,16083,,,,PreRating,,,,1,1063,17185
Class_cond_v2_CB_nervous,224,v2,2,,,,CSPlus,image4.bmp,1,2369,19625,,,,PreRating,,,,1,2007,21679
Class_cond_v2_CB_nervous,224,v2,3,CSNoise,image4.bmp,6000,,,,,,,,,CSTrial,,,,,,
Class_cond_v2_CB_nervous,224,v2,4,CSNoise,image4.bmp,7000,,,,,,,,,CSTrial,,,,,,
Class_cond_v2_CB_nervous,224,v2,5,CSNoise,image4.bmp,7000,,,,,,,,,CSTrial,,,,,,
Class_cond_v2_CB_nervous,224,v2,6,CSMinus,image3.bmp,6000,,,,,,,,,CSTrial,,,,,,
Class_cond_v2_CB_nervous,224,v2,7,CSNoise,image4.bmp,1000,,,,,,,,,CSTrial,,,,,,
Class_cond_v2_CB_nervous,224,v2,8,CSMinus,image3.bmp,6000,,,,,,,,,CSTrial,,,,,,
Class_cond_v2_CB_nervous,224,v2,9,CSPlus,image4.bmp,500,,,,,,,,,CSTrial,,,,,,
Class_cond_v2_CB_nervous,224,v2,10,CSMinus,image3.bmp,4000,,,,,,,,,CSTrial,,,,,,
Class_cond_v2_CB_nervous,224,v2,11,CSNoise,image4.bmp,6000,,,,,,,,,CSTrial,,,,,,
Class_cond_v2_CB_nervous,224,v2,12,CSMinus,image3.bmp,2500,,,,,,,,,CSTrial,,,,,,
Class_cond_v2_CB_nervous,224,v2,13,CSMinus,image3.bmp,7000,,,,,,,,,CSTrial,,,,,,
Class_cond_v2_CB_nervous,224,v2,14,CSNoise,image4.bmp,4500,,,,,,,,,CSTrial,,,,,,
Class_cond_v2_CB_nervous,224,v2,15,CSMinus,image3.bmp,2000,,,,,,,,,CSTrial,,,,,,
Class_cond_v2_CB_nervous,224,v2,16,CSMinus,image3.bmp,12000,,,,,,,,,CSTrial,,,,,,
Class_cond_v2_CB_nervous,224,v2,17,CSPlus,image4.bmp,7500,,,,,,,,,CSTrial,,,,,,
Class_cond_v2_CB_nervous,224,v2,18,CSMinus,image3.bmp,1000,,,,,,,,,CSTrial,,,,,,
Class_cond_v2_CB_nervous,224,v2,19,,,,CSPlus,image4.bmp,,,,2,32052,327711,PreRating1,1,5204,332962,,,
Class_cond_v2_CB_nervous,224,v2,20,,,,CSMinus,image3.bmp,,,,1,5485,338492,PreRating1,2,3209,341750,,,
Class_cond_v2_CB_nervous,230,v2,1,,,,CSPlus,image4.bmp,3,4629,27132,,,,PreRating,,,,1,4318,31488
Class_cond_v2_CB_nervous,230,v2,2,,,,CSMinus,image3.bmp,4,2445,34014,,,,PreRating,,,,1,2458,36511
Class_cond_v2_CB_nervous,230,v2,3,CSNoise,image4.bmp,6000,,,,,,,,,CSTrial,,,,,,
Class_cond_v2_CB_nervous,230,v2,4,CSNoise,image4.bmp,7000,,,,,,,,,CSTrial,,,,,,
Class_cond_v2_CB_nervous,230,v2,5,CSNoise,image4.bmp,7000,,,,,,,,,CSTrial,,,,,,
Class_cond_v2_CB_nervous,230,v2,6,CSMinus,image3.bmp,6000,,,,,,,,,CSTrial,,,,,,
Class_cond_v2_CB_nervous,230,v2,7,CSNoise,image4.bmp,1000,,,,,,,,,CSTrial,,,,,,
Class_cond_v2_CB_nervous,230,v2,8,CSMinus,image3.bmp,6000,,,,,,,,,CSTrial,,,,,,
Class_cond_v2_CB_nervous,230,v2,9,CSPlus,image4.bmp,500,,,,,,,,,CSTrial,,,,,,
Class_cond_v2_CB_nervous,230,v2,10,CSMinus,image3.bmp,4000,,,,,,,,,CSTrial,,,,,,
Class_cond_v2_CB_nervous,230,v2,11,CSNoise,image4.bmp,6000,,,,,,,,,CSTrial,,,,,,
Class_cond_v2_CB_nervous,230,v2,12,CSMinus,image3.bmp,2500,,,,,,,,,CSTrial,,,,,,
Class_cond_v2_CB_nervous,230,v2,13,CSMinus,image3.bmp,7000,,,,,,,,,CSTrial,,,,,,
Class_cond_v2_CB_nervous,230,v2,14,CSNoise,image4.bmp,4500,,,,,,,,,CSTrial,,,,,,
Class_cond_v2_CB_nervous,230,v2,15,CSMinus,image3.bmp,2000,,,,,,,,,CSTrial,,,,,,
Class_cond_v2_CB_nervous,230,v2,16,CSMinus,image3.bmp,12000,,,,,,,,,CSTrial,,,,,,
Class_cond_v2_CB_nervous,230,v2,17,CSPlus,image4.bmp,7500,,,,,,,,,CSTrial,,,,,,
Class_cond_v2_CB_nervous,230,v2,18,CSMinus,image3.bmp,1000,,,,,,,,,CSTrial,,,,,,
Class_cond_v2_CB_nervous,230,v2,19,,,,CSMinus,image3.bmp,,,,4,4955,322294,PreRating1,1,2787,325126,,,
Class_cond_v2_CB_nervous,230,v2,20,,,,CSPlus,image4.bmp,,,,3,2486,327658,PreRating1,1,2266,329972,,,
Class_cond_v2_CB_nervous,239,v2,1,,,,CSPlus,image4.bmp,5,3303,23378,,,,PreRating,,,,3,1370,24795
Class_cond_v2_CB_nervous,239,v2,2,,,,CSMinus,image3.bmp,5,5811,30653,,,,PreRating,,,,1,947,31638
Class_cond_v2_CB_nervous,239,v2,3,CSNoise,image4.bmp,6000,,,,,,,,,CSTrial,,,,,,
Class_cond_v2_CB_nervous,239,v2,4,CSNoise,image4.bmp,7000,,,,,,,,,CSTrial,,,,,,
Class_cond_v2_CB_nervous,239,v2,5,CSNoise,image4.bmp,7000,,,,,,,,,CSTrial,,,,,,
Class_cond_v2_CB_nervous,239,v2,6,CSMinus,image3.bmp,6000,,,,,,,,,CSTrial,,,,,,
Class_cond_v2_CB_nervous,239,v2,7,CSNoise,image4.bmp,1000,,,,,,,,,CSTrial,,,,,,
Class_cond_v2_CB_nervous,239,v2,8,CSMinus,image3.bmp,6000,,,,,,,,,CSTrial,,,,,,
Class_cond_v2_CB_nervous,239,v2,9,CSPlus,image4.bmp,500,,,,,,,,,CSTrial,,,,,,
Class_cond_v2_CB_nervous,239,v2,10,CSMinus,image3.bmp,4000,,,,,,,,,CSTrial,,,,,,
Class_cond_v2_CB_nervous,239,v2,11,CSNoise,image4.bmp,6000,,,,,,,,,CSTrial,,,,,,
Class_cond_v2_CB_nervous,239,v2,12,CSMinus,image3.bmp,2500,,,,,,,,,CSTrial,,,,,,
Class_cond_v2_CB_nervous,239,v2,13,CSMinus,image3.bmp,7000,,,,,,,,,CSTrial,,,,,,
Class_cond_v2_CB_nervous,239,v2,14,CSNoise,image4.bmp,4500,,,,,,,,,CSTrial,,,,,,
Class_cond_v2_CB_nervous,239,v2,15,CSMinus,image3.bmp,2000,,,,,,,,,CSTrial,,,,,,
Class_cond_v2_CB_nervous,239,v2,16,CSMinus,image3.bmp,12000,,,,,,,,,CSTrial,,,,,,
Class_cond_v2_CB_nervous,239,v2,17,CSPlus,image4.bmp,7500,,,,,,,,,CSTrial,,,,,,
Class_cond_v2_CB_nervous,239,v2,18,CSMinus,image3.bmp,1000,,,,,,,,,CSTrial,,,,,,
Class_cond_v2_CB_nervous,239,v2,19,,,,CSMinus,image3.bmp,,,,5,2482,285745,PreRating1,1,1455,287251,,,
Class_cond_v2_CB_nervous,239,v2,20,,,,CSPlus,image4.bmp,,,,5,1047,288343,PreRating1,1,1237,289617,,,
Class_cond_v2_CB_nervous,254,v2,1,,,,CSMinus,image3.bmp,5,2714,11290,,,,PreRating,,,,5,5215,16558
Class_cond_v2_CB_nervous,254,v2,2,,,,CSPlus,image4.bmp,5,3386,20012,,,,PreRating,,,,2,3328,23387
Class_cond_v2_CB_nervous,254,v2,3,CSNoise,image4.bmp,6000,,,,,,,,,CSTrial,,,,,,
Class_cond_v2_CB_nervous,254,v2,4,CSNoise,image4.bmp,7000,,,,,,,,,CSTrial,,,,,,
Class_cond_v2_CB_nervous,254,v2,5,CSNoise,image4.bmp,7000,,,,,,,,,CSTrial,,,,,,
Class_cond_v2_CB_nervous,254,v2,6,CSMinus,image3.bmp,6000,,,,,,,,,CSTrial,,,,,,
Class_cond_v2_CB_nervous,254,v2,7,CSNoise,image4.bmp,1000,,,,,,,,,CSTrial,,,,,,
Class_cond_v2_CB_nervous,254,v2,8,CSMinus,image3.bmp,6000,,,,,,,,,CSTrial,,,,,,
Class_cond_v2_CB_nervous,254,v2,9,CSPlus,image4.bmp,500,,,,,,,,,CSTrial,,,,,,
Class_cond_v2_CB_nervous,254,v2,10,CSMinus,image3.bmp,4000,,,,,,,,,CSTrial,,,,,,
Class_cond_v2_CB_nervous,254,v2,11,CSNoise,image4.bmp,6000,,,,,,,,,CSTrial,,,,,,
Class_cond_v2_CB_nervous,254,v2,12,CSMinus,image3.bmp,2500,,,,,,,,,CSTrial,,,,,,
Class_cond_v2_CB_nervous,254,v2,13,CSMinus,image3.bmp,7000,,,,,,,,,CSTrial,,,,,,
Class_cond_v2_CB_nervous,254,v2,14,CSNoise,image4.bmp,4500,,,,,,,,,CSTrial,,,,,,
Class_cond_v2_CB_nervous,254,v2,15,CSMinus,image3.bmp,2000,,,,,,,,,CSTrial,,,,,,
Class_cond_v2_CB_nervous,254,v2,16,CSMinus,image3.bmp,12000,,,,,,,,,CSTrial,,,,,,
Class_cond_v2_CB_nervous,254,v2,17,CSPlus,image4.bmp,7500,,,,,,,,,CSTrial,,,,,,
Class_cond_v2_CB_nervous,254,v2,18,CSMinus,image3.bmp,1000,,,,,,,,,CSTrial,,,,,,
Class_cond_v2_CB_nervous,254,v2,19,,,,CSMinus,image3.bmp,,,,5,8028,312057,PreRating1,2,2960,315055,,,
Class_cond_v2_CB_nervous,254,v2,20,,,,CSPlus,image4.bmp,,,,5,1619,316731,PreRating1,2,1483,318261,,,
Class_cond_v2_CB_nervous,264,v2,1,,,,CSMinus,image3.bmp,5,4975,28085,,,,PreRating,,,,3,7754,35880
Class_cond_v2_CB_nervous,264,v2,2,,,,CSPlus,image4.bmp,5,3388,39347,,,,PreRating,,,,3,3453,42845
Class_cond_v2_CB_nervous,264,v2,3,CSNoise,image4.bmp,6000,,,,,,,,,CSTrial,,,,,,
Class_cond_v2_CB_nervous,264,v2,4,CSNoise,image4.bmp,7000,,,,,,,,,CSTrial,,,,,,
Class_cond_v2_CB_nervous,264,v2,5,CSNoise,image4.bmp,7000,,,,,,,,,CSTrial,,,,,,
Class_cond_v2_CB_nervous,264,v2,6,CSMinus,image3.bmp,6000,,,,,,,,,CSTrial,,,,,,
Class_cond_v2_CB_nervous,264,v2,7,CSNoise,image4.bmp,1000,,,,,,,,,CSTrial,,,,,,
Class_cond_v2_CB_nervous,264,v2,8,CSMinus,image3.bmp,6000,,,,,,,,,CSTrial,,,,,,
Class_cond_v2_CB_nervous,264,v2,9,CSPlus,image4.bmp,500,,,,,,,,,CSTrial,,,,,,
Class_cond_v2_CB_nervous,264,v2,10,CSMinus,image3.bmp,4000,,,,,,,,,CSTrial,,,,,,
Class_cond_v2_CB_nervous,264,v2,11,CSNoise,image4.bmp,6000,,,,,,,,,CSTrial,,,,,,
Class_cond_v2_CB_nervous,264,v2,12,CSMinus,image3.bmp,2500,,,,,,,,,CSTrial,,,,,,
Class_cond_v2_CB_nervous,264,v2,13,CSMinus,image3.bmp,7000,,,,,,,,,CSTrial,,,,,,
Class_cond_v2_CB_nervous,264,v2,14,CSNoise,image4.bmp,4500,,,,,,,,,CSTrial,,,,,,
Class_cond_v2_CB_nervous,264,v2,15,CSMinus,image3.bmp,2000,,,,,,,,,CSTrial,,,,,,
